img,event_label,thisN,thisTrialN,thisRepN,trials.thisRepN,trials.thisTrialN,trials.thisN,trials.thisIndex,thisRow.t,notes,Start_LSL.started,Start_LSL.stopped,Baseline.started,Baseline.stopped,Attention.started,BASELINE_code,BASELINE_tGlob,BASELINE_tLSL,ATTENTION_code,ATTENTION_tGlob,ATTENTION_tLSL,attention_cross.started,attention_cross.stopped,Attention.stopped,Stim.started,motor_cue.started,STIM_code,STIM_tGlob,STIM_tLSL,Stim.stopped,Attempt.started,attempt.started,ATTEMPT_code,ATTEMPT_tGlob,ATTEMPT_tLSL,Attempt.stopped,Rest.started,image_2.started,REST_code,REST_tGlob,REST_tLSL,Rest.stopped,attempt.stopped,image_2.stopped,participant,session,date,expName,expVersion,psychopyVersion,frameRate,expStart,
,,,,,,,,,,,0.07383499998832121,0.0739418999874033,,,,,,,,,,,,,,,,,,,,,,,,,,,,,,,,,054326,001,2025-09-08_16h07.26.147,Graz,,2025.1.1,60.10359455373421,2025-09-08 16h09.18.236708 -0300,
,,,,,,,,,,,,,0.07398739998461679,0.07405699999071658,,,,,,,,,,,,,,,,,,,,,,,,,,,,,,,054326,001,2025-09-08_16h07.26.147,Graz,,2025.1.1,60.10359455373421,2025-09-08 16h09.18.236708 -0300,
D:\Documentos\GitHub\real_time_bci\stims\left_arrow.png,LEFT_MI_STIM,0,0,0,0,0,0,4,0.09998120000818744,,,,,,0.082276200002525,1,0.10000169998966157,522204.1058415,2,0.10004819999448955,522204.1058839,3.0837701999698766,5.133808300015517,5.0670729000121355,5.116491599997971,5.133808300015517,3,5.13384500000393,522209.139686,6.33423340000445,6.334290299972054,6.352776099985931,5,6.352801700006239,522210.3586419,10.086957100022119,10.087012399977539,10.103446499968413,6,10.103476999967825,522214.1093186,12.088766800006852,,,054326,001,2025-09-08_16h07.26.147,Graz,,2025.1.1,60.10359455373421,2025-09-08 16h09.18.236708 -0300,
D:\Documentos\GitHub\real_time_bci\stims\right_arrow.png,RIGHT_MI_STIM,1,1,0,0,1,1,7,12.10334229998989,,,,,,12.088936800020747,,,,2,12.103382100001909,522216.1092221,12.10334229998989,,14.089001599990297,14.136415100016166,14.155040099984035,4,14.15507089998573,522218.160912,15.3346550000133,15.334702499967534,15.350776400009636,5,15.3507990000071,522219.3566379,19.08398389996728,19.08404350001365,19.100872199982405,6,19.100894699979108,522223.1067337,21.084343699971214,,,054326,001,2025-09-08_16h07.26.147,Graz,,2025.1.1,60.10359455373421,2025-09-08 16h09.18.236708 -0300,
D:\Documentos\GitHub\real_time_bci\stims\right_arrow.png,RIGHT_MI_STIM,2,2,0,0,2,2,6,21.100005400017835,,,,,,21.08447659999365,,,,2,21.100029200024437,522225.1058668,21.100005400017835,,23.085456600005273,23.13163600000553,23.151782999979332,4,23.15183980000438,522227.15918,24.33384410000872,24.333889100002125,24.350187000003643,5,24.35020970000187,522228.356049,28.0836205999949,28.083662200020626,28.1028907999862,6,28.10291389998747,522232.1087537,30.08375160000287,,,054326,001,2025-09-08_16h07.26.147,Graz,,2025.1.1,60.10359455373421,2025-09-08 16h09.18.236708 -0300,
D:\Documentos\GitHub\real_time_bci\stims\left_arrow.png,LEFT_MI_STIM,3,3,0,0,3,3,1,30.100191999983508,,,,,,30.083917299984023,,,,2,30.100225500005763,522234.1060654,30.100191999983508,,32.084120900020935,32.12664189998759,32.134639900003094,3,32.13466510002036,522236.1405045,33.33395030000247,33.33399489999283,33.35108290001517,5,33.3511056000134,522237.3569451,37.08415960002458,37.08421030000318,37.10069290001411,6,37.10071169998264,522241.1065497,39.087693899986334,,,054326,001,2025-09-08_16h07.26.147,Graz,,2025.1.1,60.10359455373421,2025-09-08 16h09.18.236708 -0300,
D:\Documentos\GitHub\real_time_bci\stims\left_arrow.png,LEFT_MI_STIM,4,4,0,0,4,4,3,39.10071500000777,,,,,,39.087839199986774,,,,2,39.10074409999652,522243.1065834,39.10071500000777,,41.08406650001416,41.128722699999344,41.13805800001137,3,41.13807839999208,522245.1439173,42.333934399997815,42.333966800011694,42.35136400000192,5,42.35138750000624,522246.3572269,46.08466130000306,46.08469980000518,46.10352130001411,6,46.103551500011235,522250.1093918,48.08528960001422,,,054326,001,2025-09-08_16h07.26.147,Graz,,2025.1.1,60.10359455373421,2025-09-08 16h09.18.236708 -0300,
D:\Documentos\GitHub\real_time_bci\stims\left_arrow.png,LEFT_MI_STIM,5,5,0,0,5,5,0,48.10353760002181,,,,,,48.08540420001373,,,,2,48.103576299967244,522252.109417,48.10353760002181,,50.08492390002357,50.12503709999146,50.13389029999962,3,50.13391450000927,522254.1397534,51.335224199981894,51.335261299973354,51.35096399998292,5,51.35099110001465,522255.3568312,55.08435030002147,55.084382199973334,55.101364200003445,6,55.101381900021806,522259.1072204,57.08529509999789,,,054326,001,2025-09-08_16h07.26.147,Graz,,2025.1.1,60.10359455373421,2025-09-08 16h09.18.236708 -0300,
D:\Documentos\GitHub\real_time_bci\stims\left_arrow.png,LEFT_MI_STIM,6,6,0,0,6,6,2,57.101266900019255,,,,,,57.085456100001466,,,,2,57.10129169997526,522261.1071304,57.101266900019255,,59.08487399999285,59.12604339997051,59.13597629999276,3,59.13600110000698,522263.1418411,60.33484159997897,60.33489619998727,60.35194219998084,5,60.35197169997264,522264.3578117,64.08496200002264,64.08500810002442,64.10246149997693,6,64.10249660001136,522268.1083414,66.08580070000608,,,054326,001,2025-09-08_16h07.26.147,Graz,,2025.1.1,60.10359455373421,2025-09-08 16h09.18.236708 -0300,
D:\Documentos\GitHub\real_time_bci\stims\right_arrow.png,RIGHT_MI_STIM,7,7,0,0,7,7,8,66.1013531999779,,,,,,66.08596090000356,,,,2,66.10137789999135,522270.1072162,66.1013531999779,,68.08493429998634,68.12454589997651,68.1366212000139,4,68.1366515000118,522272.1424915,69.33567469997797,69.33572470000945,69.35197119996883,5,69.3519995000097,522273.3578395,73.08590940001886,73.08595719997538,73.10215280001285,6,73.10218629997689,522277.1080271,75.07528709998587,,,054326,001,2025-09-08_16h07.26.147,Graz,,2025.1.1,60.10359455373421,2025-09-08 16h09.18.236708 -0300,
D:\Documentos\GitHub\real_time_bci\stims\right_arrow.png,RIGHT_MI_STIM,8,8,0,0,8,8,9,75.08566629997222,,,,,,75.0756155999843,,,,2,75.08570809999947,522279.09155,75.08566629997222,77.11858150002081,77.06902230001288,77.11288819997571,77.11858150002081,4,77.1186073999852,522281.1244458,78.3359075000044,78.33603980002226,78.35135569999693,5,78.3513796000043,522282.3572197,82.08572319999803,82.08576739998534,82.1017210999853,6,82.10174900002312,522286.1075888,84.08621059998404,,,054326,001,2025-09-08_16h07.26.147,Graz,,2025.1.1,60.10359455373421,2025-09-08 16h09.18.236708 -0300,
D:\Documentos\GitHub\real_time_bci\stims\right_arrow.png,RIGHT_MI_STIM,9,9,0,0,9,9,5,84.10188630002085,,,,,,84.0863731999998,,,,2,84.10192119999556,522288.1077612,84.10188630002085,,86.0857374999905,86.13279290002538,86.15851699997438,4,86.15853800001787,522290.164376,87.33590319997165,87.33594879996963,87.35261800000444,5,87.35264479997568,522291.3584855,91.08527579996735,91.0853255999973,91.10274469997967,6,91.10277190001216,522295.1086124,93.08570389996748,,,054326,001,2025-09-08_16h07.26.147,Graz,,2025.1.1,60.10359455373421,2025-09-08 16h09.18.236708 -0300,
D:\Documentos\GitHub\real_time_bci\stims\right_arrow.png,RIGHT_MI_STIM,10,0,1,1,0,10,7,93.10469399997965,,,,,,93.0859123999835,,,,2,93.10474089998752,522297.1105833,93.10469399997965,,95.11113009997644,95.16664389998186,95.190230600012,4,95.1902606000076,522299.1961018,96.33864979998907,96.3387006999692,96.35183250001865,5,96.35185779997846,522300.3576971,100.08584179996978,100.08589019998908,100.10417080001207,6,100.10419440001715,522304.1100352,102.0863868999877,,,054326,001,2025-09-08_16h07.26.147,Graz,,2025.1.1,60.10359455373421,2025-09-08 16h09.18.236708 -0300,
D:\Documentos\GitHub\real_time_bci\stims\left_arrow.png,LEFT_MI_STIM,11,1,1,1,1,11,2,102.10184760001721,,,,,,102.08653109997977,,,,2,102.10188139998354,522306.1077216,102.10184760001721,,104.08571710000979,104.12721299997065,104.13938419998158,3,104.13941459998023,522308.1452549,105.33527009998215,105.33531749999383,105.35255090001738,5,105.35257649997948,522309.3584163,109.08568660001038,109.08575019997079,109.10208209999837,6,109.10210750001715,522313.107947,111.0868653000216,,,054326,001,2025-09-08_16h07.26.147,Graz,,2025.1.1,60.10359455373421,2025-09-08 16h09.18.236708 -0300,
D:\Documentos\GitHub\real_time_bci\stims\left_arrow.png,LEFT_MI_STIM,12,2,1,1,2,12,0,111.10214859998086,,,,,,111.08704730001045,,,,2,111.10217420000117,522315.1080128,111.10214859998086,,113.08595889998833,113.12767590000294,113.13583029998699,3,113.1358484000084,522317.1416863,114.33586019999348,114.33591849997174,114.35198849998415,5,114.35200660000555,522318.3578447,118.0867542999913,118.08680489996914,118.10382090002531,6,118.1038446999737,522322.109685,120.0876125000068,,,054326,001,2025-09-08_16h07.26.147,Graz,,2025.1.1,60.10359455373421,2025-09-08 16h09.18.236708 -0300,
D:\Documentos\GitHub\real_time_bci\stims\right_arrow.png,RIGHT_MI_STIM,13,3,1,1,3,13,8,120.10232060000999,,,,,,120.08779879997019,,,,2,120.10235830000602,522324.1081987,120.10232060000999,,122.08656239998527,122.12433710001642,122.13699440000346,4,122.1370141999796,522326.1428522,123.34020989999408,123.3402660000138,123.35265559999971,5,123.35267689998727,522327.3585151,127.08574539999245,127.08579089998966,127.1030048999819,6,127.10303070000373,522331.1088697,129.08614510000916,,,054326,001,2025-09-08_16h07.26.147,Graz,,2025.1.1,60.10359455373421,2025-09-08 16h09.18.236708 -0300,
D:\Documentos\GitHub\real_time_bci\stims\left_arrow.png,LEFT_MI_STIM,14,4,1,1,4,14,4,129.10311209998326,,,,,,129.0862992000184,,,,2,129.10314159997506,522333.1089817,129.10311209998326,,131.08678179996787,131.13462450000225,131.15401599998586,3,131.1540503000142,522335.1598919,132.33683300000848,132.33688359998632,132.35303549998207,5,132.35306039999705,522336.3589007,136.08733509999,136.0873760000104,136.10483839997323,6,136.10486189997755,522340.1107008,138.08748799999012,,,054326,001,2025-09-08_16h07.26.147,Graz,,2025.1.1,60.10359455373421,2025-09-08 16h09.18.236708 -0300,
D:\Documentos\GitHub\real_time_bci\stims\right_arrow.png,RIGHT_MI_STIM,15,5,1,1,5,15,6,138.10421479999786,,,,,,138.08765419997508,,,,2,138.10424269997748,522342.1100812,138.10421479999786,,140.0862797999871,140.1254105999833,140.13825279998127,4,140.1382815000252,522344.1441215,141.33792600000743,141.33797449996928,141.35697049996816,5,141.3569959999877,522345.3628352,145.0879772999906,145.0880214999779,145.1101604999858,6,145.11019819998182,522349.116042,147.0901559999911,,,054326,001,2025-09-08_16h07.26.147,Graz,,2025.1.1,60.10359455373421,2025-09-08 16h09.18.236708 -0300,
D:\Documentos\GitHub\real_time_bci\stims\right_arrow.png,RIGHT_MI_STIM,16,6,1,1,6,16,5,147.1030463000061,,,,,,147.0902788999956,,,,2,147.10307249997277,522351.108911,147.1030463000061,,149.08633590000682,149.12811890000012,149.1357153999852,4,149.13573749997886,522353.1415763,150.33673779998207,150.33677069999976,150.35340339998947,5,150.35342260001926,522354.3592604,154.08672899997327,154.08680260000983,154.1035781999817,6,154.10360159998527,522358.1094414,156.08661469997605,,,054326,001,2025-09-08_16h07.26.147,Graz,,2025.1.1,60.10359455373421,2025-09-08 16h09.18.236708 -0300,
D:\Documentos\GitHub\real_time_bci\stims\right_arrow.png,RIGHT_MI_STIM,17,7,1,1,7,17,9,156.10328129999107,,,,,,156.08677519997582,,,,2,156.10331659996882,522360.1091596,156.10328129999107,,158.08618939999724,158.12623870000243,158.13650859997142,4,158.13653119996889,522362.1423713,159.33692149998387,159.33697609999217,159.35240999999223,5,159.35243169998284,522363.3582698,163.0858753999928,163.08591690001776,163.10356820002198,6,163.10359339998104,522367.1094331,165.08738470001845,,,054326,001,2025-09-08_16h07.26.147,Graz,,2025.1.1,60.10359455373421,2025-09-08 16h09.18.236708 -0300,
D:\Documentos\GitHub\real_time_bci\stims\left_arrow.png,LEFT_MI_STIM,18,8,1,1,8,18,1,165.10342890000902,,,,,,165.08753700001398,,,,2,165.1034573999932,522369.109297,165.10342890000902,,167.0875688000233,167.12850180000532,167.13820380001562,3,167.1382344000158,522371.1440752,168.3376221000217,168.33766929997364,168.35352459998103,5,168.35354759998154,522372.3593871,172.08716029999778,172.0872073000064,172.10389119997853,6,172.1039185000118,522376.1097582,174.0893609999912,,,054326,001,2025-09-08_16h07.26.147,Graz,,2025.1.1,60.10359455373421,2025-09-08 16h09.18.236708 -0300,
D:\Documentos\GitHub\real_time_bci\stims\left_arrow.png,LEFT_MI_STIM,19,9,1,1,9,19,3,174.10368649999145,,,,,,174.08952600002522,,,,2,174.10371799999848,522378.1095572,174.10368649999145,,176.08967979997396,176.12852189998375,176.1377243999741,3,176.13775059999898,522380.1435902,177.3388588000089,177.33890650002286,177.35695960000157,5,177.35698599996977,522381.3628268,181.10469010000816,181.10486810002476,181.1311827999889,6,181.13121570000658,522385.1370574,183.08739429997513,,,054326,001,2025-09-08_16h07.26.147,Graz,,2025.1.1,60.10359455373421,2025-09-08 16h09.18.236708 -0300,
D:\Documentos\GitHub\real_time_bci\stims\left_arrow.png,LEFT_MI_STIM,20,0,2,2,0,20,0,183.103637000022,,,,,,183.08759010001086,,,,2,183.10367119999137,522387.109511,183.103637000022,,185.0876596000162,185.13263259996893,185.13762080000015,3,185.13764769997215,522389.1434893,186.3373045999906,186.33733780001057,186.35418189998018,5,186.35420339996926,522390.3600418,190.08822779997718,190.08827569999266,190.10459409997566,6,190.10461609996855,522394.1104555,192.0873436999973,,,054326,001,2025-09-08_16h07.26.147,Graz,,2025.1.1,60.10359455373421,2025-09-08 16h09.18.236708 -0300,
D:\Documentos\GitHub\real_time_bci\stims\right_arrow.png,RIGHT_MI_STIM,21,1,2,2,1,21,6,192.10360839997884,,,,,,192.0875394999748,,,,2,192.1036340999999,522396.1094721,192.10360839997884,,194.08724369999254,194.12832289998187,194.14090369996848,4,194.1409294999903,522398.1467701,195.33733890001895,195.33738809998613,195.35437159996945,5,195.35439549997682,522399.3602396,199.08708710002247,199.0871468000114,199.10439669998595,6,199.1044230000116,522403.110263,201.08791790000396,,,054326,001,2025-09-08_16h07.26.147,Graz,,2025.1.1,60.10359455373421,2025-09-08 16h09.18.236708 -0300,
D:\Documentos\GitHub\real_time_bci\stims\left_arrow.png,LEFT_MI_STIM,22,2,2,2,2,22,2,201.10409729997627,,,,,,201.0880782000022,,,,2,201.10413029999472,522405.1099702,201.10409729997627,,203.08751139999367,203.12765909999143,203.13715819997014,3,203.13718540000264,522407.1430249,204.34097660001134,204.3410233000177,204.3543719999725,5,204.35438949998934,522408.3602271,208.0880042000208,208.08803739998257,208.10400599997956,6,208.10403069999302,522412.1098708,210.08792339998763,,,054326,001,2025-09-08_16h07.26.147,Graz,,2025.1.1,60.10359455373421,2025-09-08 16h09.18.236708 -0300,
D:\Documentos\GitHub\real_time_bci\stims\right_arrow.png,RIGHT_MI_STIM,23,3,2,2,3,23,7,210.10419149999507,,,,,,210.08808269997826,,,,2,210.1042178000207,522414.1100565,210.10419149999507,,212.08790039998712,212.13198569999076,212.13848159997724,4,212.13850669999374,522416.1443463,213.33823749999283,213.3382918999996,213.35443309997208,5,213.35445729998173,522417.3602972,217.08983050001552,217.0898641999811,217.10724089998985,6,217.10726989997784,522421.1131102,219.0880940000061,,,054326,001,2025-09-08_16h07.26.147,Graz,,2025.1.1,60.10359455373421,2025-09-08 16h09.18.236708 -0300,
D:\Documentos\GitHub\real_time_bci\stims\right_arrow.png,RIGHT_MI_STIM,24,4,2,2,4,24,9,219.10428729996784,,,,,,219.08823719999054,,,,2,219.10432159999618,522423.110162,219.10428729996784,,221.08982990001095,221.13174919999437,221.1384344000253,4,221.13845550001133,522425.1442949,222.33941620000405,222.33946330001345,222.3544230000116,5,222.35445959999925,522426.3603001,226.09420940000564,226.09425359999295,226.10503649996826,6,226.1050596999703,522430.110899,228.0875822000089,,,054326,001,2025-09-08_16h07.26.147,Graz,,2025.1.1,60.10359455373421,2025-09-08 16h09.18.236708 -0300,
D:\Documentos\GitHub\real_time_bci\stims\right_arrow.png,RIGHT_MI_STIM,25,5,2,2,5,25,5,228.10663230001228,,,,,,228.08770340000046,,,,2,228.10666009999113,522432.1124988,228.10663230001228,,230.07434569997713,230.12373270001262,230.13886250002543,4,230.1388958999887,522434.1447372,231.34133049997035,231.3413806000026,231.35667970002396,5,231.3567061999929,522435.362546,235.09298369998578,235.0930318000028,235.11117330001434,6,235.1111940999981,522439.1170328,237.09044489997905,,,054326,001,2025-09-08_16h07.26.147,Graz,,2025.1.1,60.10359455373421,2025-09-08 16h09.18.236708 -0300,
D:\Documentos\GitHub\real_time_bci\stims\left_arrow.png,LEFT_MI_STIM,26,6,2,2,6,26,4,237.1054596999893,,,,,,237.09059540001908,,,,2,237.10549390001688,522441.1113374,237.1054596999893,,239.07526700000744,239.11963809997542,239.13769579998916,3,239.1377251999802,522443.1435654,240.33983750001062,240.3398729999899,240.35989899997367,5,240.35993189999135,522444.3657758,244.0915441000252,244.09159279998858,244.10842200001935,6,244.10844500001986,522448.1142842,246.09246740001254,,,054326,001,2025-09-08_16h07.26.147,Graz,,2025.1.1,60.10359455373421,2025-09-08 16h09.18.236708 -0300,
D:\Documentos\GitHub\real_time_bci\stims\left_arrow.png,LEFT_MI_STIM,27,7,2,2,7,27,3,246.10645439999644,,,,,,246.0926304999739,,,,2,246.1064836999867,522450.1123226,246.10645439999644,,248.089249200013,248.12748329999158,248.1410288999905,3,248.14105380000547,522452.1468929,249.32435880001867,249.3244137999718,249.3380645000143,5,249.3380897999741,522453.3439302,253.07185700000264,253.0718834999716,253.08802740002284,6,253.08805939997546,522457.0938999,255.07359169999836,253.08802740002284,255.09128290001536,054326,001,2025-09-08_16h07.26.147,Graz,,2025.1.1,60.10359455373421,2025-09-08 16h09.18.236708 -0300,
D:\Documentos\GitHub\real_time_bci\stims\left_arrow.png,LEFT_MI_STIM,28,8,2,2,8,28,1,255.09128290001536,,,,,,255.07373070000904,,,,2,255.09132690000115,522459.0971723,255.09128290001536,,257.08748200000264,257.1185982999741,257.1205866999808,3,257.12060049996944,522461.1264382,258.3372467000154,258.3372761000064,258.3537200000137,5,258.3537302999757,522462.3595676,262.0882437999826,262.0882760999957,262.10439649998443,6,262.1044135999982,522466.1102511,264.0875357000041,,,054326,001,2025-09-08_16h07.26.147,Graz,,2025.1.1,60.10359455373421,2025-09-08 16h09.18.236708 -0300,
D:\Documentos\GitHub\real_time_bci\stims\right_arrow.png,RIGHT_MI_STIM,29,9,2,2,9,29,8,264.10392119997414,,,,,,264.08763540000655,,,,2,264.1039367999765,522468.1097741,264.10392119997414,,266.08733710000524,266.11865459999535,266.1206567999907,4,266.1206668000086,522470.1265038,267.33766149997246,267.3376928999787,267.354138900002,5,267.3541528999922,522471.3599902,271.0872742999927,271.08730140002444,271.1039022000041,6,271.103912200022,522475.1097495,273.0874424999929,,,054326,001,2025-09-08_16h07.26.147,Graz,,2025.1.1,60.10359455373421,2025-09-08 16h09.18.236708 -0300,
D:\Documentos\GitHub\real_time_bci\stims\right_arrow.png,RIGHT_MI_STIM,30,0,3,3,0,30,9,273.10404379997635,,,,,,273.08754119998775,,,,2,273.1040599999833,522477.1098974,273.10404379997635,,275.08770009997534,275.11922230001073,275.120834500005,4,275.12084470002446,522479.1266821,276.337441199983,276.33747109997785,276.3540416000178,5,276.35405229998287,522480.35989,280.08753469999647,280.08756159996847,280.1040955000208,6,280.1041064999881,522484.1099439,282.08783049997874,,,054326,001,2025-09-08_16h07.26.147,Graz,,2025.1.1,60.10359455373421,2025-09-08 16h09.18.236708 -0300,
D:\Documentos\GitHub\real_time_bci\stims\right_arrow.png,RIGHT_MI_STIM,31,1,3,3,1,31,7,282.10417449998204,,,,,,282.0879365999717,,,,2,282.10418949997984,522486.1100268,282.10417449998204,,284.08754610002507,284.1186996999895,284.12096809997456,4,284.1209780999925,522488.1268157,285.3375342999934,285.3375629999791,285.3541549000074,5,285.3541645000223,522489.3600018,289.0879711000016,289.0880005999934,289.1046702999738,6,289.10468699998455,522493.1105245,291.0882484000176,,,054326,001,2025-09-08_16h07.26.147,Graz,,2025.1.1,60.10359455373421,2025-09-08 16h09.18.236708 -0300,
D:\Documentos\GitHub\real_time_bci\stims\left_arrow.png,LEFT_MI_STIM,32,2,3,3,2,32,1,291.10464540001703,,,,,,291.08834720001323,,,,2,291.1046620999696,522495.1104996,291.10464540001703,,293.08783510001376,293.1181078000227,293.1211470999988,3,293.12115859996993,522497.1269963,294.33795670000836,294.33798860001843,294.35444329999154,5,294.35445440001786,522498.3602915,298.08788319997257,298.08791020000353,298.10460660001263,6,298.10461949999444,522502.1104572,300.08784960000776,,,054326,001,2025-09-08_16h07.26.147,Graz,,2025.1.1,60.10359455373421,2025-09-08 16h09.18.236708 -0300,
D:\Documentos\GitHub\real_time_bci\stims\left_arrow.png,LEFT_MI_STIM,33,3,3,3,3,33,2,300.1044833000051,,,,,,300.0879467999912,,,,2,300.10449739999603,522504.1103349,300.1044833000051,,302.0880215999787,302.11791749997064,302.1218513000058,3,302.12186199997086,522506.1276995,303.33805989997927,303.3380885000224,303.35468290001154,5,303.3546940999804,522507.3605314,307.0885227000108,307.0885508999927,307.1050894000218,6,307.1051007999922,522511.1109377,309.08856289996766,,,054326,001,2025-09-08_16h07.26.147,Graz,,2025.1.1,60.10359455373421,2025-09-08 16h09.18.236708 -0300,
D:\Documentos\GitHub\real_time_bci\stims\left_arrow.png,LEFT_MI_STIM,34,4,3,3,4,34,0,309.10510849999264,,,,,,309.08866100001615,,,,2,309.10512809996726,522513.1109658,309.10510849999264,,311.08848759997636,311.11908590001985,311.1235410000081,3,311.12355489999754,522515.1293927,312.33862940000836,312.3386608000146,312.35516669997014,5,312.3551778999972,522516.3610148,316.0886378000141,316.088665999996,316.105230199988,6,316.10524200001964,522520.111079,318.08879810001235,,,054326,001,2025-09-08_16h07.26.147,Graz,,2025.1.1,60.10359455373421,2025-09-08 16h09.18.236708 -0300,
D:\Documentos\GitHub\real_time_bci\stims\right_arrow.png,RIGHT_MI_STIM,35,5,3,3,5,35,8,318.10532400000375,,,,,,318.08890520001296,,,,2,318.10534830001416,522522.111187,318.10532400000375,,320.0890920999809,320.1211818999727,320.14065000001574,4,320.1406691999873,522524.1465075,321.3387029999867,321.33873139997013,321.3552976999781,5,321.35530850000214,522525.3611456,325.0894021000131,325.08943120000185,325.10544169996865,6,325.10545390000334,522529.1112908,327.0888138000155,,,054326,001,2025-09-08_16h07.26.147,Graz,,2025.1.1,60.10359455373421,2025-09-08 16h09.18.236708 -0300,
D:\Documentos\GitHub\real_time_bci\stims\left_arrow.png,LEFT_MI_STIM,36,6,3,3,6,36,4,327.105432500015,,,,,,327.0889116000035,,,,2,327.1054528999957,522531.1112904,327.105432500015,,329.08887490001507,329.1194779999787,329.12327129999176,3,329.12329050002154,522533.1291284,330.3391253000009,330.339157600014,330.3561165999854,5,330.35613670002203,522534.3619747,334.0890481999959,334.08907749998616,334.1055959999794,6,334.10560989996884,522538.1114476,336.08909490000224,,,054326,001,2025-09-08_16h07.26.147,Graz,,2025.1.1,60.10359455373421,2025-09-08 16h09.18.236708 -0300,
D:\Documentos\GitHub\real_time_bci\stims\right_arrow.png,RIGHT_MI_STIM,37,7,3,3,7,37,5,336.10561839997536,,,,,,336.0891967000207,,,,2,336.1056393000181,522540.1114776,336.10561839997536,,338.08891709998716,338.1200447999872,338.12329070002306,4,338.12330079998355,522542.1291382,339.3390176999965,339.3390454999753,339.35563700000057,5,339.35564790002536,522543.3614852,343.0891234999872,343.08915259997593,343.1057432999951,6,343.10575990000507,522547.111599,345.0892286999733,,,054326,001,2025-09-08_16h07.26.147,Graz,,2025.1.1,60.10359455373421,2025-09-08 16h09.18.236708 -0300,
D:\Documentos\GitHub\real_time_bci\stims\left_arrow.png,LEFT_MI_STIM,38,8,3,3,8,38,3,345.10573120001936,,,,,,345.089332500007,,,,2,345.10574729996733,522549.1115846,345.10573120001936,,347.08910450001713,347.11923700000625,347.123540200002,3,347.1235533999861,522551.1293908,348.33926849998534,348.3392977999756,348.35585100000026,5,348.35586319997674,522552.3617001,352.0892634000047,352.08928989997366,352.10586549999425,6,352.10587640001904,522556.1117133,354.0893233999959,,,054326,001,2025-09-08_16h07.26.147,Graz,,2025.1.1,60.10359455373421,2025-09-08 16h09.18.236708 -0300,
D:\Documentos\GitHub\real_time_bci\stims\right_arrow.png,RIGHT_MI_STIM,39,9,3,3,9,39,6,354.1058767000213,,,,,,354.0894259000197,,,,2,354.1058934999746,522558.1117314,354.1058767000213,,356.0894763999968,356.12095959996805,356.1405322999926,4,356.1405480999965,522560.1463854,357.3393453999888,357.339373899973,357.3559563999879,5,357.35596750001423,522561.3618042,361.08940300001996,361.08942969999043,361.1060367000173,6,361.10604769998463,522565.1118849,363.0894739999785,,,054326,001,2025-09-08_16h07.26.147,Graz,,2025.1.1,60.10359455373421,2025-09-08 16h09.18.236708 -0300,
