img,event_label,thisN,thisTrialN,thisRepN,trials.thisRepN,trials.thisTrialN,trials.thisN,trials.thisIndex,thisRow.t,notes,Start_LSL.started,Start_LSL.stopped,Baseline.started,Baseline.stopped,Attention.started,BASELINE_code,BASELINE_tGlob,BASELINE_tLSL,ATTENTION_code,ATTENTION_tGlob,ATTENTION_tLSL,attention_cross.started,Attention.stopped,Stim.started,motor_cue.started,STIM_code,STIM_tGlob,STIM_tLSL,Stim.stopped,Attempt.started,attempt.started,ATTEMPT_code,ATTEMPT_tGlob,ATTEMPT_tLSL,Attempt.stopped,Rest.started,image_2.started,REST_code,REST_tGlob,REST_tLSL,Rest.stopped,End.started,End.stopped,BLOCK_END_code,BLOCK_END_tGlob,BLOCK_END_tLSL,participant,session,date,expName,expVersion,psychopyVersion,frameRate,expStart,
,,,,,,,,,,,0.07316939998418093,0.07323910016566515,,,,,,,,,,,,,,,,,,,,,,,,,,,,,,,,,,,061258,001,2026-05-27_21h27.20.822,Graz,,2025.1.1,59.69593276101376,2026-05-27 21h27.24.865304 -0300,
,,,,,,,,,,,,,0.07327069994062185,0.07330580009147525,,,,,,,,,,,,,,,,,,,,,,,,,,,,,,,,,061258,001,2026-05-27_21h27.20.822,Graz,,2025.1.1,59.69593276101376,2026-05-27 21h27.24.865304 -0300,
C:\Users\User\Documents\GitHub\real_time_bci\stims\right_hand.png,RIGHT_MI_STIM,0,0,0,0,0,0,5,0.09044310008175671,,,,,,0.07798960013315082,1,0.09047010005451739,1277065.4136738,2,0.09053159994073212,1277065.4137323,3.2104511000216007,5.087567900074646,5.154773200163618,5.166266600135714,4,5.166288600070402,1277070.4894902,6.334752700058743,6.334842100040987,6.349481499986723,5,6.3495023001451045,1277071.6727045,10.07424410013482,10.074282499961555,10.09047510009259,6,10.090496900025755,1277075.4136986,12.07663629995659,,,,,,061258,001,2026-05-27_21h27.20.822,Graz,,2025.1.1,59.69593276101376,2026-05-27 21h27.24.865304 -0300,
C:\Users\User\Documents\GitHub\real_time_bci\stims\right_hand.png,RIGHT_MI_STIM,1,1,0,0,1,1,6,12.093443999998271,,,,,,12.076773799955845,,,,2,12.093471999978647,1277077.4166741,12.093443999998271,14.481357400072739,14.52837030007504,14.549036100041121,4,14.54905640007928,1277079.8722574,15.336430500028655,15.336470199981704,15.352049299981445,5,15.352073400048539,1277080.6752756,19.473940999945626,19.47397970012389,19.490200200118124,6,19.49022140004672,1277084.8134233,21.076382800005376,,,,,,061258,001,2026-05-27_21h27.20.822,Graz,,2025.1.1,59.69593276101376,2026-05-27 21h27.24.865304 -0300,
C:\Users\User\Documents\GitHub\real_time_bci\stims\left_hand.png,LEFT_MI_STIM,2,2,0,0,2,2,1,21.09304550010711,,,,,,21.076509300153702,,,,2,21.093072300078347,1277086.416274,21.09304550010711,23.081421500071883,23.12745840009302,23.14777910010889,3,23.147799500031397,1277088.4710004,24.332607500022277,24.332648300100118,24.34923329995945,5,24.34925359999761,1277089.6724551,28.07492549996823,28.074962800135836,28.09120379993692,6,28.09122800012119,1277093.4144303,30.079319200012833,,,,,,061258,001,2026-05-27_21h27.20.822,Graz,,2025.1.1,59.69593276101376,2026-05-27 21h27.24.865304 -0300,
C:\Users\User\Documents\GitHub\real_time_bci\stims\right_hand.png,RIGHT_MI_STIM,3,3,0,0,3,3,7,30.09747299994342,,,,,,30.079467500094324,,,,2,30.09751190012321,1277095.4207159,30.09747299994342,32.08007220015861,32.12549390015192,32.13133170013316,4,32.131354100070894,1277097.4545557,33.33242410002276,33.33246690011583,33.348841400118545,5,33.34886349993758,1277098.6720647,37.09042889997363,37.090468800161034,37.1067914001178,6,37.1068140999414,1277102.430016,39.07672560005449,,,,,,061258,001,2026-05-27_21h27.20.822,Graz,,2025.1.1,59.69593276101376,2026-05-27 21h27.24.865304 -0300,
C:\Users\User\Documents\GitHub\real_time_bci\stims\left_hand.png,LEFT_MI_STIM,4,4,0,0,4,4,4,39.09536330006085,,,,,,39.07685509999283,,,,2,39.09539579995908,1277104.4185995,39.09536330006085,41.08042740006931,41.13190410006791,41.14881550008431,3,41.148836500011384,1277106.472038,42.33486540010199,42.33492500009015,42.34961750009097,5,42.34963950002566,1277107.6728414,46.08894230006263,46.088984300149605,46.105704799992964,6,46.10572799993679,1277111.4289303,48.076479400042444,,,,,,061258,001,2026-05-27_21h27.20.822,Graz,,2025.1.1,59.69593276101376,2026-05-27 21h27.24.865304 -0300,
C:\Users\User\Documents\GitHub\real_time_bci\stims\left_hand.png,LEFT_MI_STIM,5,5,0,0,5,5,0,48.09523560013622,,,,,,48.07660540007055,,,,2,48.09526260010898,1277113.4184645,48.09523560013622,50.07944900006987,50.126090300036594,50.13169090007432,3,50.13171169999987,1277115.4549129,51.335679800016806,51.335719800088555,51.352068200008944,5,51.35209470009431,1277116.6752966,55.091446600155905,55.091485700104386,55.106398300034925,6,55.10642040008679,1277120.4296221,57.075679700123146,,,,,,061258,001,2026-05-27_21h27.20.822,Graz,,2025.1.1,59.69593276101376,2026-05-27 21h27.24.865304 -0300,
C:\Users\User\Documents\GitHub\real_time_bci\stims\left_hand.png,LEFT_MI_STIM,6,6,0,0,6,6,2,57.09269930003211,,,,,,57.07581009995192,,,,2,57.09272850002162,1277122.4159306,57.09269930003211,59.08159890002571,59.13208270003088,59.14745309995487,3,59.1474739999976,1277124.4706754,60.332315400009975,60.33235640008934,60.3481340999715,5,60.34815950016491,1277125.6713617,64.07508860016242,64.07512539997697,64.09024820011109,6,64.09027240006253,1277129.4134742,66.07568290014751,,,,,,061258,001,2026-05-27_21h27.20.822,Graz,,2025.1.1,59.69593276101376,2026-05-27 21h27.24.865304 -0300,
C:\Users\User\Documents\GitHub\real_time_bci\stims\right_hand.png,RIGHT_MI_STIM,7,7,0,0,7,7,9,66.09255880001001,,,,,,66.07585690007545,,,,2,66.09258659998886,1277131.4157886,66.09255880001001,68.08141860016622,68.13114399998449,68.14723360002972,4,68.14725539996289,1277133.4704574,69.3348501001019,69.33489189995453,69.35086240014061,5,69.35095640015788,1277134.674176,73.07447440014221,73.07451090007089,73.09046390000731,6,73.09048489993438,1277138.4136864,75.0749305000063,,,,,,061258,001,2026-05-27_21h27.20.822,Graz,,2025.1.1,59.69593276101376,2026-05-27 21h27.24.865304 -0300,
C:\Users\User\Documents\GitHub\real_time_bci\stims\right_hand.png,RIGHT_MI_STIM,8,8,0,0,8,8,8,75.09226760012098,,,,,,75.07505860016681,,,,2,75.09229620010592,1277140.4154982,75.09226760012098,77.07946299994364,77.13058710005134,77.14618370006792,4,77.14620140008628,1277142.4694028,78.33241070015356,78.33245400013402,78.34755920013413,5,78.34758040006272,1277143.6707818,82.09129350003786,82.09133290010504,82.10552550014108,6,82.10554730007425,1277147.4287492,84.07681190012954,,,,,,061258,001,2026-05-27_21h27.20.822,Graz,,2025.1.1,59.69593276101376,2026-05-27 21h27.24.865304 -0300,
C:\Users\User\Documents\GitHub\real_time_bci\stims\left_hand.png,LEFT_MI_STIM,9,9,0,0,9,9,3,84.09431860013865,,,,,,84.07695130002685,,,,2,84.09435350005515,1277149.4175562,84.09431860013865,86.0789695000276,86.12257910007611,86.13012839993462,3,86.13015049998648,1277151.4533523,87.3333239001222,87.33336409996264,87.34941280004568,5,87.34944100002758,1277152.6726433,91.07395440014079,91.07399159995839,91.09030569996685,6,91.09034660016187,1277156.4135536,93.07483109994791,,,,,,061258,001,2026-05-27_21h27.20.822,Graz,,2025.1.1,59.69593276101376,2026-05-27 21h27.24.865304 -0300,
C:\Users\User\Documents\GitHub\real_time_bci\stims\left_hand.png,LEFT_MI_STIM,10,0,1,1,0,10,0,93.09523129998706,,,,,,93.07496500015259,,,,2,93.09526940016076,1277158.4184736,93.09523129998706,95.07897970010526,95.12903279997408,95.14684460009448,3,95.14686740003526,1277160.4700689,96.33139639999717,96.33143720007502,96.34772439999506,5,96.34774959995411,1277161.6709519,100.08944140002131,100.08949790010229,100.10451239999384,6,100.10453739995137,1277165.4277399,102.07455700007267,,,,,,061258,001,2026-05-27_21h27.20.822,Graz,,2025.1.1,59.69593276101376,2026-05-27 21h27.24.865304 -0300,
C:\Users\User\Documents\GitHub\real_time_bci\stims\right_hand.png,RIGHT_MI_STIM,11,1,1,1,1,11,9,102.09234070009552,,,,,,102.07468790002167,,,,2,102.09237159998156,1277167.415574,102.09234070009552,104.08004330005497,104.1280072000809,104.14645070000552,4,104.14647200005129,1277169.469674,105.33114430005662,105.33119289996102,105.34689450007863,5,105.3469158001244,1277170.6701174,109.09007410006598,109.09011530014686,109.10516729997471,6,109.1051896000281,1277174.4283913,111.07628450007178,,,,,,061258,001,2026-05-27_21h27.20.822,Graz,,2025.1.1,59.69593276101376,2026-05-27 21h27.24.865304 -0300,
C:\Users\User\Documents\GitHub\real_time_bci\stims\left_hand.png,LEFT_MI_STIM,12,2,1,1,2,12,4,111.09361260011792,,,,,,111.07642029994167,,,,2,111.09364100010134,1277176.4168426,111.09361260011792,113.07761000003666,113.12334579997696,113.13012890005484,3,113.130149200093,1277178.4533507,114.33321180008352,114.33325450005941,114.34947809996083,5,114.34951140009798,1277179.6727162,118.08736709994264,118.08740570000373,118.1036155000329,6,118.1036366999615,1277183.426838,120.07408810011111,,,,,,061258,001,2026-05-27_21h27.20.822,Graz,,2025.1.1,59.69593276101376,2026-05-27 21h27.24.865304 -0300,
C:\Users\User\Documents\GitHub\real_time_bci\stims\right_hand.png,RIGHT_MI_STIM,13,3,1,1,3,13,7,120.09081339999102,,,,,,120.074223899981,,,,2,120.09084150008857,1277185.4140434,120.09081339999102,122.07853109994903,122.12647420004942,122.1458580000326,4,122.14587990008295,1277187.4690813,123.33085909998044,123.3309057999868,123.34619760001078,5,123.34621600015089,1277188.6694169,127.0877187999431,127.08775760000572,127.10342749999836,6,127.10345080005936,1277192.4266528,129.07534119999036,,,,,,061258,001,2026-05-27_21h27.20.822,Graz,,2025.1.1,59.69593276101376,2026-05-27 21h27.24.865304 -0300,
C:\Users\User\Documents\GitHub\real_time_bci\stims\left_hand.png,LEFT_MI_STIM,14,4,1,1,4,14,1,129.0931045000907,,,,,,129.0754718000535,,,,2,129.09313319996,1277194.4163348,129.0931045000907,131.07881410000846,131.1320043001324,131.1455540000461,3,131.1455747000873,1277196.468776,132.33272680011578,132.33276650006883,132.34824790013954,5,132.34828869998455,1277197.6714965,136.09004159993492,136.0900976001285,136.10600339993834,6,136.10602569999173,1277201.4292272,138.07333149993792,,,,,,061258,001,2026-05-27_21h27.20.822,Graz,,2025.1.1,59.69593276101376,2026-05-27 21h27.24.865304 -0300,
C:\Users\User\Documents\GitHub\real_time_bci\stims\right_hand.png,RIGHT_MI_STIM,15,5,1,1,5,15,6,138.09048150014132,,,,,,138.0734568000771,,,,2,138.09050910011865,1277203.413711,138.09048150014132,140.0775266001001,140.12541870004497,140.1447388001252,4,140.14476029993966,1277205.4679625,141.33009380009025,141.3301347999368,141.34578900015913,5,141.3458478001412,1277206.6690564,145.0869587000925,145.08699680003338,145.10434840014204,6,145.10436860006303,1277210.4275698,147.09016959997825,,,,,,061258,001,2026-05-27_21h27.20.822,Graz,,2025.1.1,59.69593276101376,2026-05-27 21h27.24.865304 -0300,
C:\Users\User\Documents\GitHub\real_time_bci\stims\left_hand.png,LEFT_MI_STIM,16,6,1,1,6,16,2,147.1062231999822,,,,,,147.09029800002463,,,,2,147.10624939994887,1277212.4294509,147.1062231999822,149.07810520008206,149.12532440014184,149.1457194001414,3,149.1458138001617,1277214.469027,150.33035650011152,150.33039680006914,150.3466996999923,5,150.3468995001167,1277215.6701609,154.08774770004675,154.08778359997086,154.10574829997495,6,154.1057689001318,1277219.4289702,156.07512610009871,,,,,,061258,001,2026-05-27_21h27.20.822,Graz,,2025.1.1,59.69593276101376,2026-05-27 21h27.24.865304 -0300,
C:\Users\User\Documents\GitHub\real_time_bci\stims\right_hand.png,RIGHT_MI_STIM,17,7,1,1,7,17,5,156.09170410013758,,,,,,156.0752534000203,,,,2,156.0917335001286,1277221.4149348,156.09170410013758,158.0762974000536,158.12698659999296,158.14425370004028,4,158.14427380007692,1277223.4674758,159.33148810011335,159.33152909995988,159.35144580015913,5,159.351470900001,1277224.6746727,163.08738519996405,163.08747910009697,163.10326410015114,6,163.10328610008582,1277228.4264885,165.09012329997495,,,,,,061258,001,2026-05-27_21h27.20.822,Graz,,2025.1.1,59.69593276101376,2026-05-27 21h27.24.865304 -0300,
C:\Users\User\Documents\GitHub\real_time_bci\stims\left_hand.png,LEFT_MI_STIM,18,8,1,1,8,18,3,165.10655590007082,,,,,,165.09024960012175,,,,2,165.10658380016685,1277230.4297851,165.10655590007082,167.07640280015767,167.12206570012495,167.12778840004466,3,167.12780779995956,1277232.4510092,168.33154139993712,168.3315824000165,168.34728780016303,5,168.34731000009924,1277233.6705118,172.0857802000828,172.08581920014694,172.10342060006224,6,172.10344250011258,1277237.4266437,174.07401610002853,,,,,,061258,001,2026-05-27_21h27.20.822,Graz,,2025.1.1,59.69593276101376,2026-05-27 21h27.24.865304 -0300,
C:\Users\User\Documents\GitHub\real_time_bci\stims\right_hand.png,RIGHT_MI_STIM,19,9,1,1,9,19,8,174.09118889993988,,,,,,174.07414470007643,,,,2,174.0912166000344,1277239.4144184,174.09118889993988,176.07851519994438,176.13023649994284,176.14425440016203,4,176.14430660009384,1277241.4675148,177.32901820004918,177.32906020013615,177.34567950014025,5,177.34573010005988,1277242.668941,181.08807629998773,181.088116500061,181.1031925000716,6,181.10321380011737,1277246.4264156,183.08949410007335,,,,,,061258,001,2026-05-27_21h27.20.822,Graz,,2025.1.1,59.69593276101376,2026-05-27 21h27.24.865304 -0300,
,,,,,,,,,,,,,,,,,,,,,,,,,,,,,,,,,,,,,,,,,,183.0895857999567,183.08964459993877,,,,061258,001,2026-05-27_21h27.20.822,Graz,,2025.1.1,59.69593276101376,2026-05-27 21h27.24.865304 -0300,
,,,,,,,,,,,,,,,,,,,,,,,,,,,,,,,,,,,,,,,,,,,,99,183.10543090011925,1277248.4286326,,,,,,,,,
