img,event_label,thisN,thisTrialN,thisRepN,trials.thisRepN,trials.thisTrialN,trials.thisN,trials.thisIndex,thisRow.t,notes,Start_LSL.started,Start_LSL.stopped,Baseline.started,Baseline.stopped,Attention.started,BASELINE_code,BASELINE_tGlob,BASELINE_tLSL,ATTENTION_code,ATTENTION_tGlob,ATTENTION_tLSL,attention_cross.started,attention_cross.stopped,Attention.stopped,Stim.started,motor_cue.started,STIM_code,STIM_tGlob,STIM_tLSL,Stim.stopped,Attempt.started,attempt.started,ATTEMPT_code,ATTEMPT_tGlob,ATTEMPT_tLSL,Attempt.stopped,Rest.started,image_2.started,REST_code,REST_tGlob,REST_tLSL,Rest.stopped,End.started,End.stopped,BLOCK_END_code,BLOCK_END_tGlob,BLOCK_END_tLSL,participant,session,date,expName,expVersion,psychopyVersion,frameRate,expStart,
,,,,,,,,,,,0.08607209986075759,0.0861663999967277,,,,,,,,,,,,,,,,,,,,,,,,,,,,,,,,,,,,071946,001,2026-06-07_18h51.56.451,Graz,,2025.1.1,59.67836935099256,2026-06-07 18h52.01.786201 -0300,
,,,,,,,,,,,,,0.08621330000460148,0.08625710010528564,,,,,,,,,,,,,,,,,,,,,,,,,,,,,,,,,,071946,001,2026-06-07_18h51.56.451,Graz,,2025.1.1,59.67836935099256,2026-06-07 18h52.01.786201 -0300,
C:\Users\User\Documents\GitHub\real_time_bci\stims\right_hand.png,RIGHT_MI_STIM,0,0,0,0,0,0,9,0.10889340005815029,,,,,,0.0917022000066936,1,0.10891530010849237,2218200.3085828,2,0.10897119995206594,2218200.3086353,3.0967581998556852,5.169552700128406,5.086141999810934,5.146199400071055,5.169552700128406,4,5.16957959998399,2218205.3692466,6.336624899879098,6.3366636000573635,6.353478800039738,5,6.353501199744642,2218206.553168,10.093245199881494,10.093279799912125,10.109832699876279,6,10.109853100031614,2218210.3095198,12.097877999767661,,,,,,071946,001,2026-06-07_18h51.56.451,Graz,,2025.1.1,59.67836935099256,2026-06-07 18h52.01.786201 -0300,
C:\Users\User\Documents\GitHub\real_time_bci\stims\right_hand.png,RIGHT_MI_STIM,1,1,0,0,1,1,7,12.11329590016976,,,,,,12.098230099771172,,,,2,12.113345199730247,2218212.3130165,12.11329590016976,,14.102921899873763,14.150504400022328,14.167764899786562,4,14.16778580006212,2218214.3674522,15.352808599825948,15.352847199887037,15.367703400086612,5,15.367722900118679,2218215.5673895,19.09298099996522,19.093016299884766,19.10949579998851,6,19.10951570002362,2218219.3091823,21.10182509990409,,,,,,071946,001,2026-06-07_18h51.56.451,Graz,,2025.1.1,59.67836935099256,2026-06-07 18h52.01.786201 -0300,
C:\Users\User\Documents\GitHub\real_time_bci\stims\left_hand.png,LEFT_MI_STIM,2,2,0,0,2,2,0,21.12157109985128,,,,,,21.102229400072247,,,,2,21.12165579991415,2218221.3213399,21.12157109985128,,23.10035720001906,23.14710839977488,23.16722120018676,3,23.167242399882525,2218223.3669095,24.33691449975595,24.336993699893355,24.352005599997938,5,24.352026700042188,2218224.5516932,28.092693299986422,28.092728099785745,28.115020399913192,6,28.115085000172257,2218228.3147646,30.096695399843156,,,,,,071946,001,2026-06-07_18h51.56.451,Graz,,2025.1.1,59.67836935099256,2026-06-07 18h52.01.786201 -0300,
C:\Users\User\Documents\GitHub\real_time_bci\stims\left_hand.png,LEFT_MI_STIM,3,3,0,0,3,3,3,30.113336599897593,,,,,,30.09685239987448,,,,2,30.11336599988863,2218230.3130338,30.113336599897593,,32.08713149977848,32.140791799873114,32.15251659974456,3,32.152536999899894,2218232.3522035,33.35201809974387,33.35205500014126,33.36825909977779,5,33.36827939981595,2218233.5679458,37.099774399772286,37.0998949999921,37.11112549994141,6,37.11119349999353,2218237.3108718,39.0960603998974,,,,,,071946,001,2026-06-07_18h51.56.451,Graz,,2025.1.1,59.67836935099256,2026-06-07 18h52.01.786201 -0300,
C:\Users\User\Documents\GitHub\real_time_bci\stims\left_hand.png,LEFT_MI_STIM,4,4,0,0,4,4,2,39.113139799796045,,,,,,39.09629220003262,,,,2,39.113176399841905,2218239.3128451,39.113139799796045,,41.10126859974116,41.14858190016821,41.16703699994832,3,41.16705769998953,2218241.3667248,42.35134099982679,42.35137900011614,42.36642049998045,5,42.366441200021654,2218242.566108,46.09020149987191,46.09023660002276,46.1068259999156,6,46.10684789996594,2218246.3065146,48.09572029998526,,,,,,071946,001,2026-06-07_18h51.56.451,Graz,,2025.1.1,59.67836935099256,2026-06-07 18h52.01.786201 -0300,
C:\Users\User\Documents\GitHub\real_time_bci\stims\right_hand.png,RIGHT_MI_STIM,5,5,0,0,5,5,8,48.11157689988613,,,,,,48.09611399983987,,,,2,48.11162600014359,2218248.3112984,48.11157689988613,,50.10108039993793,50.151932400185615,50.16583489999175,4,50.16585640003905,2218250.3655233,51.349706899840385,51.34974779980257,51.36595269991085,5,51.36597499996424,2218251.5656418,55.09031709982082,55.09035799978301,55.106708500068635,6,55.10673339990899,2218255.3064013,57.09814380016178,,,,,,071946,001,2026-06-07_18h51.56.451,Graz,,2025.1.1,59.67836935099256,2026-06-07 18h52.01.786201 -0300,
C:\Users\User\Documents\GitHub\real_time_bci\stims\left_hand.png,LEFT_MI_STIM,6,6,0,0,6,6,4,57.11178499972448,,,,,,57.09857690008357,,,,2,57.11190229980275,2218257.311606,57.11178499972448,,59.10127659980208,59.174600100144744,59.18285010010004,3,59.1828720998019,2218259.3825389,60.35051009990275,60.35056659998372,60.36675379984081,5,60.366783699952066,2218260.5664532,64.08992559975013,64.0899739000015,64.10653079999611,6,64.10655870009214,2218264.3062274,66.09531569993123,,,,,,071946,001,2026-06-07_18h51.56.451,Graz,,2025.1.1,59.67836935099256,2026-06-07 18h52.01.786201 -0300,
C:\Users\User\Documents\GitHub\real_time_bci\stims\left_hand.png,LEFT_MI_STIM,7,7,0,0,7,7,1,66.111354699824,,,,,,66.09565059980378,,,,2,66.11140039982274,2218266.3110705,66.111354699824,,68.09668349986896,68.15126769989729,68.1649374999106,3,68.16496019996703,2218268.3646273,69.34992739977315,69.34997599991038,69.36630869982764,5,69.3663356998004,2218269.5660041,73.08952949987724,73.08956599980593,73.10562720010057,6,73.10565079981461,2218273.305318,75.09582130005583,,,,,,071946,001,2026-06-07_18h51.56.451,Graz,,2025.1.1,59.67836935099256,2026-06-07 18h52.01.786201 -0300,
C:\Users\User\Documents\GitHub\real_time_bci\stims\right_hand.png,RIGHT_MI_STIM,8,8,0,0,8,8,6,75.11072100000456,,,,,,75.09763590013608,,,,2,75.11075530014932,2218275.3104236,75.11072100000456,,77.09708179999143,77.14871730003506,77.16716990014538,4,77.16719429986551,2218277.3668617,78.34929629974067,78.34934430010617,78.36553800012916,5,78.36556639987975,2218278.5652352,82.08944100001827,82.08948440011591,82.10601510014385,6,82.10604059975594,2218282.3057093,84.09388779988512,,,,,,071946,001,2026-06-07_18h51.56.451,Graz,,2025.1.1,59.67836935099256,2026-06-07 18h52.01.786201 -0300,
C:\Users\User\Documents\GitHub\real_time_bci\stims\right_hand.png,RIGHT_MI_STIM,9,9,0,0,9,9,5,84.10905560012907,,,,,,84.09408470010385,,,,2,84.10908700013533,2218284.3087556,84.10905560012907,,86.0974734001793,86.14127139979973,86.16523309983313,4,86.16525440011173,2218286.3649213,87.3489437000826,87.34898110013455,87.36572400014848,5,87.36574599985033,2218287.5654124,91.08920559985563,91.08924390003085,91.10595270013437,6,91.10597549984232,2218291.3056427,93.09625319996849,,,,,,071946,001,2026-06-07_18h51.56.451,Graz,,2025.1.1,59.67836935099256,2026-06-07 18h52.01.786201 -0300,
C:\Users\User\Documents\GitHub\real_time_bci\stims\right_hand.png,RIGHT_MI_STIM,10,0,1,1,0,10,6,93.11145049985498,,,,,,93.09667450003326,,,,2,93.11150999972597,2218293.3111852,93.11145049985498,,95.09631869988516,95.14564329991117,95.16501910006627,4,95.16504159988835,2218295.3647084,96.34906399995089,96.34910300001502,96.3649558997713,5,96.36499160015956,2218296.5646588,100.08876270009205,100.08880269993097,100.10505260014907,6,100.10507539985701,2218300.3047419,102.09783789981157,,,,,,071946,001,2026-06-07_18h51.56.451,Graz,,2025.1.1,59.67836935099256,2026-06-07 18h52.01.786201 -0300,
C:\Users\User\Documents\GitHub\real_time_bci\stims\right_hand.png,RIGHT_MI_STIM,11,1,1,1,1,11,7,102.11413600016385,,,,,,102.09833709988743,,,,2,102.11421249993145,2218302.3138935,102.11413600016385,,104.09575780015439,104.1461346000433,104.1637258999981,4,104.16374710015953,2218304.3634137,105.34931059973314,105.3493590997532,105.36540469992906,5,105.365431800019,2218305.5651004,109.08836970012635,109.088407299947,109.10483179986477,6,109.10485380003229,2218309.3045205,111.09541809977964,,,,,,071946,001,2026-06-07_18h51.56.451,Graz,,2025.1.1,59.67836935099256,2026-06-07 18h52.01.786201 -0300,
C:\Users\User\Documents\GitHub\real_time_bci\stims\left_hand.png,LEFT_MI_STIM,12,2,1,1,2,12,2,111.1105368998833,,,,,,111.09561670012772,,,,2,111.11057309992611,2218311.310242,111.1105368998833,,113.09547449974343,113.14015789981931,113.14639610005543,3,113.14641809975728,2218313.3460848,114.34844490000978,114.3484855000861,114.36506460001692,5,114.36508810007945,2218314.5647557,118.08869089977816,118.08874480007216,118.10485719982535,6,118.10488290013745,2218318.3045509,120.09522570017725,,,,,,071946,001,2026-06-07_18h51.56.451,Graz,,2025.1.1,59.67836935099256,2026-06-07 18h52.01.786201 -0300,
C:\Users\User\Documents\GitHub\real_time_bci\stims\left_hand.png,LEFT_MI_STIM,13,3,1,1,3,13,3,120.11135450005531,,,,,,120.09536969987676,,,,2,120.11139870015904,2218320.3110689,120.11135450005531,,122.09570819977671,122.14619649993256,122.16284279990941,3,122.16286459984258,2218322.362532,123.34836089983582,123.34840139979497,123.3644916000776,5,123.36452749976888,2218323.5641939,127.0878659998998,127.08790679974481,127.10454569989815,6,127.10457039996982,2218327.3042378,129.0958051001653,,,,,,071946,001,2026-06-07_18h51.56.451,Graz,,2025.1.1,59.67836935099256,2026-06-07 18h52.01.786201 -0300,
C:\Users\User\Documents\GitHub\real_time_bci\stims\right_hand.png,RIGHT_MI_STIM,14,4,1,1,4,14,5,129.11368909990415,,,,,,129.0964236999862,,,,2,129.1137687000446,2218329.313448,129.11368909990415,,131.09836860001087,131.1768049998209,131.1960792997852,4,131.19611050002277,2218331.395781,132.34810910001397,132.34814759995788,132.36418739985675,5,132.36421049991623,2218332.5638775,136.08717820001766,136.08721709996462,136.1038409001194,6,136.10386350005865,2218336.3035303,138.09379489999264,,,,,,071946,001,2026-06-07_18h51.56.451,Graz,,2025.1.1,59.67836935099256,2026-06-07 18h52.01.786201 -0300,
C:\Users\User\Documents\GitHub\real_time_bci\stims\left_hand.png,LEFT_MI_STIM,15,5,1,1,5,15,4,138.11172960000113,,,,,,138.09423020016402,,,,2,138.111798199825,2218338.311476,138.11172960000113,,140.09479219978675,140.14296919992194,140.16234079981223,3,140.16236349986866,2218340.3620308,141.34767739987,141.34771469980478,141.36417559999973,5,141.3641979000531,2218341.5638645,145.08772319974378,145.0877712997608,145.10411539999768,6,145.1041374001652,2218345.3038044,147.09516349993646,,,,,,071946,001,2026-06-07_18h51.56.451,Graz,,2025.1.1,59.67836935099256,2026-06-07 18h52.01.786201 -0300,
C:\Users\User\Documents\GitHub\real_time_bci\stims\left_hand.png,LEFT_MI_STIM,16,6,1,1,6,16,0,147.11087760003284,,,,,,147.0955658000894,,,,2,147.11094869999215,2218347.310626,147.11087760003284,,149.09672110015526,149.1637659999542,149.17932720016688,3,149.17934929998592,2218349.3790158,150.34726769989356,150.3473052000627,150.36365499999374,5,150.36367709981278,2218350.5633438,154.08679320011288,154.08683279994875,154.10360429994762,6,154.10362609988078,2218354.3032932,156.09249449986964,,,,,,071946,001,2026-06-07_18h51.56.451,Graz,,2025.1.1,59.67836935099256,2026-06-07 18h52.01.786201 -0300,
C:\Users\User\Documents\GitHub\real_time_bci\stims\right_hand.png,RIGHT_MI_STIM,17,7,1,1,7,17,8,156.1095441998914,,,,,,156.09266510000452,,,,2,156.1095841000788,2218356.3092531,156.1095441998914,,158.09436800004914,158.14237490016967,158.16208759974688,4,158.16211050003767,2218358.3617773,159.34729199996218,159.34734690003097,159.3635352998972,5,159.3635566001758,2218359.5632236,163.08765219990164,163.0877117998898,163.10404969984666,6,163.1041063000448,2218363.3037851,165.094784299843,,,,,,071946,001,2026-06-07_18h51.56.451,Graz,,2025.1.1,59.67836935099256,2026-06-07 18h52.01.786201 -0300,
C:\Users\User\Documents\GitHub\real_time_bci\stims\right_hand.png,RIGHT_MI_STIM,18,8,1,1,8,18,9,165.10971280001104,,,,,,165.09531060000882,,,,2,165.1097953999415,2218365.3094722,165.10971280001104,,167.09401750005782,167.14162170002237,167.16158950002864,4,167.16161100007594,2218367.3612779,168.34706219984218,168.3470991998911,168.36326709995046,5,168.36328929988667,2218368.5629563,172.08797740004957,172.08831610018387,172.10369769996032,6,172.10373080009595,2218372.3034005,174.0965860998258,,,,,,071946,001,2026-06-07_18h51.56.451,Graz,,2025.1.1,59.67836935099256,2026-06-07 18h52.01.786201 -0300,
C:\Users\User\Documents\GitHub\real_time_bci\stims\left_hand.png,LEFT_MI_STIM,19,9,1,1,9,19,1,174.11092939972878,,,,,,174.09705869993195,,,,2,174.11099939979613,2218374.3107214,174.11092939972878,,176.09374340018257,176.1412753998302,176.1611679997295,3,176.16118909977376,2218376.3608564,177.34719169978052,177.34722919994965,177.36314109992236,5,177.3631629999727,2218377.5628304,181.0864996998571,181.08659789990634,181.10319900000468,6,181.1032432001084,2218381.3029152,183.0930848000571,,,,,,071946,001,2026-06-07_18h51.56.451,Graz,,2025.1.1,59.67836935099256,2026-06-07 18h52.01.786201 -0300,
,,,,,,,,,,,,,,,,,,,,,,,,,,,,,,,,,,,,,,,,,,,183.09318189974874,183.0932450001128,,,,071946,001,2026-06-07_18h51.56.451,Graz,,2025.1.1,59.67836935099256,2026-06-07 18h52.01.786201 -0300,
,,,,,,,,,,,,,,,,,,,,,,,,,,,,,,,,,,,,,,,,,,,,,99,183.10737639991567,2218383.3070439,,,,,,,,,
