img,event_label,thisN,thisTrialN,thisRepN,trials.thisRepN,trials.thisTrialN,trials.thisN,trials.thisIndex,thisRow.t,notes,Start_LSL.started,Start_LSL.stopped,Baseline.started,Baseline.stopped,Attention.started,BASELINE_code,BASELINE_tGlob,BASELINE_tLSL,ATTENTION_code,ATTENTION_tGlob,ATTENTION_tLSL,attention_cross.started,attention_cross.stopped,Attention.stopped,Stim.started,motor_cue.started,STIM_code,STIM_tGlob,STIM_tLSL,Stim.stopped,Attempt.started,attempt.started,ATTEMPT_code,ATTEMPT_tGlob,ATTEMPT_tLSL,Attempt.stopped,Rest.started,Rest.stopped,REST_code,REST_tGlob,REST_tLSL,participant,session,date,expName,expVersion,psychopyVersion,frameRate,expStart,
,,,,,,,,,,,0.08727820008061826,0.08736200002022088,,,,,,,,,,,,,,,,,,,,,,,,,,,,,,166993,001,2025-08-28_16h13.27.018,Graz,,2025.1.1,60.11002541657366,2025-08-28 16h14.03.318977 -0300,
,,,,,,,,,,,,,0.08739750017412007,0.08743569999933243,,,,,,,,,,,,,,,,,,,,,,,,,,,,166993,001,2025-08-28_16h13.27.018,Graz,,2025.1.1,60.11002541657366,2025-08-28 16h14.03.318977 -0300,
C:\Users\User\Documents\GitHub\real_time_bci\stims\left_arrow.png,LEFT_MI_STIM,0,0,0,0,0,0,2,0.09536390006542206,,,,,,0.09252800000831485,1,0.09539040015079081,1236852.2795406,2,0.09543850016780198,1236852.2795851,5.0953588001430035,7.131825200049207,7.083359000040218,7.127001899993047,7.131825200049207,3,7.131846700096503,1236859.3159959,8.351633199956268,8.351681400090456,8.368259600130841,5,8.368281100178137,1236860.55243,12.091796000022441,12.09183120005764,12.091886500129476,,,,166993,001,2025-08-28_16h13.27.018,Graz,,2025.1.1,60.11002541657366,2025-08-28 16h14.03.318977 -0300,
C:\Users\User\Documents\GitHub\real_time_bci\stims\right_arrow.png,RIGHT_MI_STIM,1,1,0,0,1,1,5,12.108422999968752,,,,,,12.092003599973395,,,,2,12.108502499992028,1236864.2926489,12.108422999968752,,14.095372800016776,14.134374000132084,14.138496000086889,4,14.138509500073269,1236866.3226578,15.347996599972248,15.348032200010493,15.364347700029612,5,15.364368400070816,1236867.5485169,19.104659900069237,19.104698500130326,19.10478790011257,6,12.108446000143886,1236864.2925949,166993,001,2025-08-28_16h13.27.018,Graz,,2025.1.1,60.11002541657366,2025-08-28 16h14.03.318977 -0300,
C:\Users\User\Documents\GitHub\real_time_bci\stims\right_arrow.png,RIGHT_MI_STIM,2,2,0,0,2,2,8,19.121151400031522,,,,,,19.10490410006605,,,,2,19.12125220010057,1236871.3054457,19.121151400031522,,21.108068300178275,21.162421399960294,21.16828009998426,4,21.16830540006049,1236873.3524559,22.360779700102285,22.360825000097975,22.377305899979547,5,22.377338299993426,1236874.5614902,26.117277200100943,26.117314500035718,26.117375600151718,6,19.121173599967733,1236871.3053232,166993,001,2025-08-28_16h13.27.018,Graz,,2025.1.1,60.11002541657366,2025-08-28 16h14.03.318977 -0300,
C:\Users\User\Documents\GitHub\real_time_bci\stims\left_arrow.png,LEFT_MI_STIM,3,3,0,0,3,3,4,26.13403009995818,,,,,,26.11748749995604,,,,2,26.134125099983066,1236878.3182982,26.13403009995818,,28.120951700024307,28.15763509995304,28.162361799972132,3,28.162388500059023,1236880.3465378,29.37315050000325,29.373187400167808,29.389746100176126,5,29.389771500136703,1236881.5739209,33.12996829999611,33.13000150001608,33.13004940003157,6,26.134055000031367,1236878.3182038,166993,001,2025-08-28_16h13.27.018,Graz,,2025.1.1,60.11002541657366,2025-08-28 16h14.03.318977 -0300,
C:\Users\User\Documents\GitHub\real_time_bci\stims\right_arrow.png,RIGHT_MI_STIM,4,4,0,0,4,4,9,33.14679910009727,,,,,,33.13015860016458,,,,2,33.14688160014339,1236885.33103,33.14679910009727,,35.13367970008403,35.17138610011898,35.175457400036976,4,35.17547340015881,1236887.3596223,36.38592789997347,36.385962900007144,36.402647900162265,5,36.40267300000414,1236888.5868239,40.14276310009882,40.14280360005796,40.14287320012227,6,33.14682010002434,1236885.3309689,166993,001,2025-08-28_16h13.27.018,Graz,,2025.1.1,60.11002541657366,2025-08-28 16h14.03.318977 -0300,
C:\Users\User\Documents\GitHub\real_time_bci\stims\right_arrow.png,RIGHT_MI_STIM,5,5,0,0,5,5,7,40.15977489994839,,,,,,40.14299000008032,,,,2,40.159870099974796,1236892.3440196,40.15977489994839,,42.14658000017516,42.19270520005375,42.1971883000806,4,42.19721290003508,1236894.3813626,43.39872739999555,43.398763300152496,43.41550330002792,5,43.41552549996413,1236895.5996742,47.155602500075474,47.15564000001177,47.155695900088176,6,40.15979800000787,1236892.3439485,166993,001,2025-08-28_16h13.27.018,Graz,,2025.1.1,60.11002541657366,2025-08-28 16h14.03.318977 -0300,
C:\Users\User\Documents\GitHub\real_time_bci\stims\left_arrow.png,LEFT_MI_STIM,6,6,0,0,6,6,1,47.17235040012747,,,,,,47.15581150003709,,,,2,47.17247540014796,1236899.3566288,47.17235040012747,,49.159361000172794,49.202091300161555,49.206187300151214,3,49.20620070002042,1236901.3903491,50.41151490015909,50.41155720013194,50.428187400102615,5,50.42821210017428,1236902.6123612,54.16856570006348,54.168626400176436,54.16871670004912,6,47.17237469996326,1236899.3565306,166993,001,2025-08-28_16h13.27.018,Graz,,2025.1.1,60.11002541657366,2025-08-28 16h14.03.318977 -0300,
C:\Users\User\Documents\GitHub\real_time_bci\stims\left_arrow.png,LEFT_MI_STIM,7,7,0,0,7,7,0,54.184972000075504,,,,,,54.16908060014248,,,,2,54.18508359999396,1236906.369234,54.184972000075504,,56.17197740008123,56.21940480009653,56.22370730014518,3,56.22373560001142,1236908.4078857,57.424551900010556,57.42461650003679,57.441231300123036,5,57.441259500104934,1236909.6254104,61.1811584001407,61.1811981999781,61.18125619995408,6,54.18499970017001,1236906.3691494,166993,001,2025-08-28_16h13.27.018,Graz,,2025.1.1,60.11002541657366,2025-08-28 16h14.03.318977 -0300,
C:\Users\User\Documents\GitHub\real_time_bci\stims\right_arrow.png,RIGHT_MI_STIM,8,8,0,0,8,8,6,61.197905800072476,,,,,,61.18136990000494,,,,2,61.1980817001313,1236913.3822318,61.197905800072476,,63.184775799978524,63.22771849995479,63.232002099975944,4,63.232022600015625,1236915.4161722,64.4380030001048,64.43810200016014,64.45422580000013,5,64.45428950013593,1236916.6384554,68.19386600004509,68.19390750001185,68.19397330004722,6,61.197952300077304,1236913.382107,166993,001,2025-08-28_16h13.27.018,Graz,,2025.1.1,60.11002541657366,2025-08-28 16h14.03.318977 -0300,
C:\Users\User\Documents\GitHub\real_time_bci\stims\left_arrow.png,LEFT_MI_STIM,9,9,0,0,9,9,3,68.21051870007068,,,,,,68.19408929999918,,,,2,68.21063550002873,1236920.3947862,68.21051870007068,,70.19764220016077,70.23566420003772,70.23960640002042,3,70.23962030000985,1236922.4237688,71.44998120004311,71.45002029999159,71.46650260011666,5,71.46652530017309,1236923.6506748,75.20673800003715,75.20677600009367,75.20683900010772,6,68.21054180013016,1236920.3946926,166993,001,2025-08-28_16h13.27.018,Graz,,2025.1.1,60.11002541657366,2025-08-28 16h14.03.318977 -0300,
C:\Users\User\Documents\GitHub\real_time_bci\stims\right_arrow.png,RIGHT_MI_STIM,10,0,1,1,0,10,6,75.22336920001544,,,,,,75.20696000009775,,,,2,75.22348499996588,1236927.4076359,75.22336920001544,,77.21037159999833,77.2533482001163,77.25756620010361,4,77.25759449996985,1236929.4417473,78.46333960001357,78.463385600131,78.48383380006999,5,78.48385760001838,1236930.668007,82.22027940000407,82.22034810017794,82.22045639995486,6,75.22339270007797,1236927.4075427,166993,001,2025-08-28_16h13.27.018,Graz,,2025.1.1,60.11002541657366,2025-08-28 16h14.03.318977 -0300,
C:\Users\User\Documents\GitHub\real_time_bci\stims\left_arrow.png,LEFT_MI_STIM,11,1,1,1,1,11,4,82.23614050005563,,,,,,82.22064019995742,,,,2,82.23621720005758,1236934.4203637,82.23614050005563,,84.22317110002041,84.2653728001751,84.26923660002649,3,84.269251300022,1236936.4534001,85.47552840015851,85.47556730010547,85.49349960009567,5,85.49352370016277,1236937.6776731,89.23218680010177,89.2322240001522,89.23228560015559,6,82.23616060009226,1236934.4203094,166993,001,2025-08-28_16h13.27.018,Graz,,2025.1.1,60.11002541657366,2025-08-28 16h14.03.318977 -0300,
C:\Users\User\Documents\GitHub\real_time_bci\stims\right_arrow.png,RIGHT_MI_STIM,12,2,1,1,2,12,7,89.24898060015403,,,,,,89.23240580013953,,,,2,89.24906220007688,1236941.4332087,89.24898060015403,,91.23609780007973,91.27458610013127,91.27853180002421,4,91.27854610001668,1236943.4626949,92.48829869995825,92.48833580012433,92.5049764001742,5,92.50500360014848,1236944.6891537,96.2458242001012,96.24592850008048,96.24613280012272,6,89.24900229997002,1236941.4331516,166993,001,2025-08-28_16h13.27.018,Graz,,2025.1.1,60.11002541657366,2025-08-28 16h14.03.318977 -0300,
C:\Users\User\Documents\GitHub\real_time_bci\stims\right_arrow.png,RIGHT_MI_STIM,13,3,1,1,3,13,8,96.26261169998907,,,,,,96.24649249995127,,,,2,96.26283859997056,1236948.4469936,96.26261169998907,,98.250645800028,98.2935830000788,98.29763270006515,4,98.29765830002725,1236950.4818081,99.50110480003059,99.50115200015716,99.51762930001132,5,99.5176509001758,1236951.7018001,103.25789980008267,103.25794250005856,103.25800200016238,6,96.2626714000944,1236948.4468308,166993,001,2025-08-28_16h13.27.018,Graz,,2025.1.1,60.11002541657366,2025-08-28 16h14.03.318977 -0300,
C:\Users\User\Documents\GitHub\real_time_bci\stims\left_arrow.png,LEFT_MI_STIM,14,4,1,1,4,14,3,103.27510840003379,,,,,,103.25811289995909,,,,2,103.27537870011292,1236955.459544,103.27510840003379,,105.26158479996957,105.29810969997197,105.3020120000001,3,105.30202970001847,1236957.4861783,106.51430699997582,106.51436430006288,106.53042339999229,5,106.53045339998789,1236958.7146059,110.27102350001223,110.27107610017993,110.27115630009212,6,103.27517010015436,1236955.4593295,166993,001,2025-08-28_16h13.27.018,Graz,,2025.1.1,60.11002541657366,2025-08-28 16h14.03.318977 -0300,
C:\Users\User\Documents\GitHub\real_time_bci\stims\left_arrow.png,LEFT_MI_STIM,15,5,1,1,5,15,2,110.28762420010753,,,,,,110.27131480001844,,,,2,110.2877434999682,1236962.4719039,110.28762420010753,,112.2775120001752,112.31655610003509,112.32048530015163,3,112.32049890002236,1236964.5046478,113.52664809999987,113.52669470012188,113.54316310002469,5,113.54319029999897,1236965.7273417,117.28382960008457,117.28387730009854,117.28395660012029,6,110.28765000007115,1236962.4717998,166993,001,2025-08-28_16h13.27.018,Graz,,2025.1.1,60.11002541657366,2025-08-28 16h14.03.318977 -0300,
C:\Users\User\Documents\GitHub\real_time_bci\stims\right_arrow.png,RIGHT_MI_STIM,16,6,1,1,6,16,5,117.30044730007648,,,,,,117.284114100039,,,,2,117.30055909999646,1236969.4847096,117.30044730007648,,119.28713609999977,119.3279685000889,119.33182780002244,4,119.3318458001595,1236971.5159943,120.53964480012655,120.53969210013747,120.5568016001489,5,120.55683430004865,1236972.7409849,124.29675920004956,124.29680910008028,124.29688929999247,6,117.30047330004163,1236969.4846246,166993,001,2025-08-28_16h13.27.018,Graz,,2025.1.1,60.11002541657366,2025-08-28 16h14.03.318977 -0300,
C:\Users\User\Documents\GitHub\real_time_bci\stims\left_arrow.png,LEFT_MI_STIM,17,7,1,1,7,17,1,124.31289970013313,,,,,,124.29702450009063,,,,2,124.31298080016859,1236976.4971278,124.31289970013313,,126.30141489999369,126.34494350012392,126.34887500014156,3,126.34889340004884,1236978.5330425,127.55236740014516,127.55240290006623,127.56898840004578,5,127.5690127001144,1236979.7531624,131.30984390014783,131.30995140015148,131.31013590004295,6,124.31292139994912,1236976.4970702,166993,001,2025-08-28_16h13.27.018,Graz,,2025.1.1,60.11002541657366,2025-08-28 16h14.03.318977 -0300,
C:\Users\User\Documents\GitHub\real_time_bci\stims\left_arrow.png,LEFT_MI_STIM,18,8,1,1,8,18,0,131.3260366001632,,,,,,131.310508799972,,,,2,131.3262072999496,1236983.51036,131.3260366001632,,133.31326199998148,133.35195360006765,133.35689159994945,3,133.3569742999971,1236985.5411377,134.56546250008978,134.56550860009156,134.5818002000451,5,134.5818274000194,1236986.765978,138.32361209997907,138.3236867999658,138.32378350012004,6,131.32608350017108,1236983.5102388,166993,001,2025-08-28_16h13.27.018,Graz,,2025.1.1,60.11002541657366,2025-08-28 16h14.03.318977 -0300,
C:\Users\User\Documents\GitHub\real_time_bci\stims\right_arrow.png,RIGHT_MI_STIM,19,9,1,1,9,19,9,138.338482900057,,,,,,138.323912500171,,,,2,138.3386029000394,1236990.5227542,138.338482900057,,140.32581830001436,140.36252900003456,140.36640290007927,4,140.36641669995151,1236992.5505655,141.5782910999842,141.57834570016712,141.59442560002208,5,141.59444999997504,1236993.7785986,145.33490790007636,145.33494830015115,145.33501060004346,6,138.33851120015606,1236990.5226614,166993,001,2025-08-28_16h13.27.018,Graz,,2025.1.1,60.11002541657366,2025-08-28 16h14.03.318977 -0300,
C:\Users\User\Documents\GitHub\real_time_bci\stims\right_arrow.png,RIGHT_MI_STIM,20,0,2,2,0,20,5,145.35134990001097,,,,,,145.33512470009737,,,,2,145.35143609996885,1236997.5355835,145.35134990001097,,147.3383820001036,147.37822029995732,147.38214230001904,4,147.38215700001456,1236999.5663055,148.59067680011503,148.59072700003162,148.60715429997072,5,148.60717700002715,1237000.7913267,152.34876990015619,152.34888670011424,152.34906559996307,6,145.35137240006588,1236997.5355219,166993,001,2025-08-28_16h13.27.018,Graz,,2025.1.1,60.11002541657366,2025-08-28 16h14.03.318977 -0300,
C:\Users\User\Documents\GitHub\real_time_bci\stims\right_arrow.png,RIGHT_MI_STIM,21,1,2,2,1,21,7,152.36482860008255,,,,,,152.34943130007014,,,,2,152.36509150010534,1237004.5492577,152.36482860008255,,154.3522101000417,154.4123215000145,154.41624419996515,4,154.4162586000748,1237006.6004074,155.6038727001287,155.6039366000332,155.62051960011013,5,155.62055830005556,1237007.8047129,159.36028350004926,159.36032119998708,159.36038760002702,6,152.36488889995962,1237004.5490513,166993,001,2025-08-28_16h13.27.018,Graz,,2025.1.1,60.11002541657366,2025-08-28 16h14.03.318977 -0300,
C:\Users\User\Documents\GitHub\real_time_bci\stims\left_arrow.png,LEFT_MI_STIM,22,2,2,2,2,22,3,159.37687130016275,,,,,,159.36049850005656,,,,2,159.37695250008255,1237011.561099,159.37687130016275,,161.3642717001494,161.40168879996054,161.40560070006177,3,161.40562970004976,1237013.5897794,162.6161666000262,162.61620349995792,162.63297070004046,5,162.63299840013497,1237014.8171491,166.3731015000958,166.37313730013557,166.37319610011764,6,159.376893900102,1237011.5610432,166993,001,2025-08-28_16h13.27.018,Graz,,2025.1.1,60.11002541657366,2025-08-28 16h14.03.318977 -0300,
C:\Users\User\Documents\GitHub\real_time_bci\stims\left_arrow.png,LEFT_MI_STIM,23,3,2,2,3,23,1,166.3896840000525,,,,,,166.37330340011977,,,,2,166.38977250014432,1237018.5739189,166.3896840000525,,168.3766348999925,168.41427940013818,168.4182523000054,3,168.41827450017445,1237020.6024244,169.62935760011896,169.62941120006144,169.64591019996442,5,169.64593750005588,1237021.8300881,173.38674190011807,173.386808300158,173.38687729998492,6,166.38970840000547,1237018.5738584,166993,001,2025-08-28_16h13.27.018,Graz,,2025.1.1,60.11002541657366,2025-08-28 16h14.03.318977 -0300,
C:\Users\User\Documents\GitHub\real_time_bci\stims\right_arrow.png,RIGHT_MI_STIM,24,4,2,2,4,24,6,173.40262900013477,,,,,,173.38699140003882,,,,2,173.40275140013546,1237025.5869037,173.40262900013477,,175.38991899997927,175.42997950012796,175.43391400016844,4,175.43392800004221,1237027.6180768,176.64219130016863,176.64224630012177,176.65869279997423,5,176.65871900017373,1237028.8428695,180.3987193000503,180.39875970012508,180.3988296999596,6,173.40265830000862,1237025.5868101,166993,001,2025-08-28_16h13.27.018,Graz,,2025.1.1,60.11002541657366,2025-08-28 16h14.03.318977 -0300,
C:\Users\User\Documents\GitHub\real_time_bci\stims\left_arrow.png,LEFT_MI_STIM,25,5,2,2,5,25,4,180.41634470014833,,,,,,180.39894270012155,,,,2,180.41647629998624,1237032.6006256,180.41634470014833,,182.40265970001929,182.44076790008694,182.44474860001355,3,182.44477970013395,1237034.6289297,183.65460410015658,183.65464269998483,183.67127280007116,5,183.67129610013217,1237035.8554455,187.4114062001463,187.41144350008108,187.41150439996272,6,180.41638389998116,1237032.6005358,166993,001,2025-08-28_16h13.27.018,Graz,,2025.1.1,60.11002541657366,2025-08-28 16h14.03.318977 -0300,
C:\Users\User\Documents\GitHub\real_time_bci\stims\right_arrow.png,RIGHT_MI_STIM,26,6,2,2,6,26,8,187.42806900013238,,,,,,187.4116194001399,,,,2,187.42815320007503,1237039.6122999,187.42806900013238,,189.4150904000271,189.45393810002133,189.45969659998082,4,189.45973880006932,1237041.6438932,190.66778200003318,190.66784610017203,190.68429680005647,5,190.6843328999821,1237042.8684837,194.42431220016442,194.42435139999725,194.42441710014828,6,187.42809160007164,1237039.6122407,166993,001,2025-08-28_16h13.27.018,Graz,,2025.1.1,60.11002541657366,2025-08-28 16h14.03.318977 -0300,
C:\Users\User\Documents\GitHub\real_time_bci\stims\left_arrow.png,LEFT_MI_STIM,27,7,2,2,7,27,0,194.44101379998028,,,,,,194.42453479999676,,,,2,194.44111100002192,1237046.6252615,194.44101379998028,,196.42797800013795,196.4687437999528,196.47402840014547,3,196.47405200009234,1237048.658203,197.68063089996576,197.68067930010147,197.69709020014852,5,197.69711580011062,1237049.8812655,201.43704079999588,201.43708409997635,201.43714389996603,6,194.44103740015998,1237046.6251874,166993,001,2025-08-28_16h13.27.018,Graz,,2025.1.1,60.11002541657366,2025-08-28 16h14.03.318977 -0300,
C:\Users\User\Documents\GitHub\real_time_bci\stims\left_arrow.png,LEFT_MI_STIM,28,8,2,2,8,28,2,201.4549051001668,,,,,,201.4372652999591,,,,2,201.45498310006224,1237053.6391295,201.4549051001668,,203.44108949997462,203.47679890017025,203.48072580015287,3,203.48074030014686,1237055.6648899,204.69334350014105,204.69339060015045,204.7096439001616,5,204.70966750010848,1237056.8938168,208.45030739996582,208.45035930001177,208.45045340014622,6,201.45492610009387,1237053.6390748,166993,001,2025-08-28_16h13.27.018,Graz,,2025.1.1,60.11002541657366,2025-08-28 16h14.03.318977 -0300,
C:\Users\User\Documents\GitHub\real_time_bci\stims\right_arrow.png,RIGHT_MI_STIM,29,9,2,2,9,29,9,208.46655220002867,,,,,,208.45061550009996,,,,2,208.46664100000635,1237060.6507874,208.46655220002867,,210.45424510003068,210.50807360000908,210.51200290000997,4,210.51201570010744,1237062.6961641,211.7058515001554,211.7058898000978,211.7224457000848,5,211.72247010003775,1237063.9066208,215.46296590007842,215.4630187000148,215.46311330003664,6,208.4665767000988,1237060.650726,166993,001,2025-08-28_16h13.27.018,Graz,,2025.1.1,60.11002541657366,2025-08-28 16h14.03.318977 -0300,
C:\Users\User\Documents\GitHub\real_time_bci\stims\left_arrow.png,LEFT_MI_STIM,30,0,3,3,0,30,4,215.47959990007803,,,,,,215.46330810012296,,,,2,215.47970569995232,1237067.663856,215.47959990007803,,217.46624980005436,217.5018973001279,217.50590490014292,3,217.50591850001365,1237069.6900669,218.72067870013416,218.72071530018002,218.73537720018066,5,218.7354219001718,1237070.91958,222.47577610006556,222.4758224999532,222.4759121001698,6,215.4796269000508,1237067.6637774,166993,001,2025-08-28_16h13.27.018,Graz,,2025.1.1,60.11002541657366,2025-08-28 16h14.03.318977 -0300,
C:\Users\User\Documents\GitHub\real_time_bci\stims\right_arrow.png,RIGHT_MI_STIM,31,1,3,3,1,31,5,222.49276500009,,,,,,222.47606769995764,,,,2,222.49302259995602,1237074.6771866,222.49276500009,,224.47907130001113,224.5148438999895,224.5187768000178,4,224.51879800017923,1237076.7029473,225.73170560016297,225.73175090015866,225.74831299996004,5,225.74833990004845,1237077.9324908,229.4881693001371,229.48821910005063,229.48828790010884,6,222.4928272999823,1237074.676987,166993,001,2025-08-28_16h13.27.018,Graz,,2025.1.1,60.11002541657366,2025-08-28 16h14.03.318977 -0300,
C:\Users\User\Documents\GitHub\real_time_bci\stims\right_arrow.png,RIGHT_MI_STIM,32,2,3,3,2,32,7,229.50480780005455,,,,,,229.48842500010505,,,,2,229.50488719996065,1237081.6890361,229.50480780005455,,231.49191149999388,231.53032490005717,231.5342965000309,4,231.534322099993,1237083.7184718,232.74421790009364,232.7442545001395,232.7607993001584,5,232.76082139997743,1237084.9449707,236.50091840000823,236.5009553001728,236.50101550016552,6,229.50482950010337,1237081.688979,166993,001,2025-08-28_16h13.27.018,Graz,,2025.1.1,60.11002541657366,2025-08-28 16h14.03.318977 -0300,
C:\Users\User\Documents\GitHub\real_time_bci\stims\left_arrow.png,LEFT_MI_STIM,33,3,3,3,3,33,1,236.5189829999581,,,,,,236.50112799997441,,,,2,236.51906060008332,1237088.703207,236.5189829999581,,238.50467900000513,238.54135850002058,238.54528960003518,3,238.54530320013873,1237090.7294519,239.75697340001352,239.75700990017503,239.77356879995205,5,239.77359290001914,1237091.9577412,243.5140168000944,243.51405750005506,243.51412119995803,6,236.519004000118,1237088.7031532,166993,001,2025-08-28_16h13.27.018,Graz,,2025.1.1,60.11002541657366,2025-08-28 16h14.03.318977 -0300,
C:\Users\User\Documents\GitHub\real_time_bci\stims\left_arrow.png,LEFT_MI_STIM,34,4,3,3,4,34,2,243.53058080002666,,,,,,243.51423830003478,,,,2,243.5306865000166,1237095.714837,243.53058080002666,,245.51916970009916,245.55597770004533,245.55989360017702,3,245.5599086000584,1237097.7440577,246.77247010008432,246.77254900010303,246.78656630008481,5,246.78660320001654,1237098.9707558,250.52697769994847,250.52704890002497,250.52715840004385,6,243.53060470009223,1237095.7147558,166993,001,2025-08-28_16h13.27.018,Graz,,2025.1.1,60.11002541657366,2025-08-28 16h14.03.318977 -0300,
C:\Users\User\Documents\GitHub\real_time_bci\stims\right_arrow.png,RIGHT_MI_STIM,35,5,3,3,5,35,9,250.54362290003337,,,,,,250.5273659999948,,,,2,250.54374810005538,1237102.7279008,250.54362290003337,,252.53060279996134,252.56740990001708,252.5713733001612,4,252.57138730003498,1237104.7555359,253.7826924000401,253.78273600013927,253.79936309996992,5,253.79941350012086,1237105.9835723,257.54068670002744,257.54079330014065,257.5409760000184,6,250.54365240014158,1237102.7278043,166993,001,2025-08-28_16h13.27.018,Graz,,2025.1.1,60.11002541657366,2025-08-28 16h14.03.318977 -0300,
C:\Users\User\Documents\GitHub\real_time_bci\stims\left_arrow.png,LEFT_MI_STIM,36,6,3,3,6,36,3,257.5566019001417,,,,,,257.5413332001772,,,,2,257.55684640002437,1237109.7410111,257.5566019001417,,259.54345870018005,259.58205029997043,259.5861758000683,3,259.58619319996797,1237111.7703422,260.79552850010805,260.79557690001093,260.8123523001559,5,260.8123771001119,1237112.9965271,264.55255130003206,264.5526009001769,264.55268219998106,6,257.55665959999897,1237109.7408184,166993,001,2025-08-28_16h13.27.018,Graz,,2025.1.1,60.11002541657366,2025-08-28 16h14.03.318977 -0300,
C:\Users\User\Documents\GitHub\real_time_bci\stims\right_arrow.png,RIGHT_MI_STIM,37,7,3,3,7,37,6,264.568769000005,,,,,,264.5528384000063,,,,2,264.56885890010744,1237116.753009,264.568769000005,,266.5558321001008,266.5927065999713,266.59664370003156,4,266.5966569001321,1237118.7808054,267.80917420005426,267.8092776001431,267.82532409997657,5,267.82538240007125,1237120.0095413,271.5666754001286,271.5667797001079,271.566960999975,6,264.5687909000553,1237116.75294,166993,001,2025-08-28_16h13.27.018,Graz,,2025.1.1,60.11002541657366,2025-08-28 16h14.03.318977 -0300,
C:\Users\User\Documents\GitHub\real_time_bci\stims\left_arrow.png,LEFT_MI_STIM,38,8,3,3,8,38,0,271.58189150015824,,,,,,271.56731840013526,,,,2,271.5820118000265,1237123.7661627,271.58189150015824,,273.5691998000257,273.6139446001034,273.6185482000001,3,273.6185684001539,1237125.8027179,274.82097929995507,274.8210181000177,274.83813709998503,5,274.83819820010103,1237127.0223575,278.5788237999659,278.5789304000791,278.5791124999523,6,271.5819211001508,1237123.7660725,166993,001,2025-08-28_16h13.27.018,Graz,,2025.1.1,60.11002541657366,2025-08-28 16h14.03.318977 -0300,
C:\Users\User\Documents\GitHub\real_time_bci\stims\right_arrow.png,RIGHT_MI_STIM,39,9,3,3,9,39,8,278.5945888001006,,,,,,278.5795094000641,,,,2,278.59470230014995,1237130.7788509,278.5945888001006,,280.58169579994865,280.62330500013195,280.62720420002006,4,280.62723510013893,1237132.811384,281.834519200027,281.83462520013563,281.85033369995654,5,281.8503632999491,1237134.0345119,285.59095020010136,285.59100889996625,285.5911063000094,6,278.5946194001008,1237130.7787715,166993,001,2025-08-28_16h13.27.018,Graz,,2025.1.1,60.11002541657366,2025-08-28 16h14.03.318977 -0300,
,,,,,,,,,,,,,,,,,,,,,,,,,,,,,,,,,,,,,,,6,285.6071953000501,1237137.7913469,,,,,,,,,
