img,event_label,thisN,thisTrialN,thisRepN,trials.thisRepN,trials.thisTrialN,trials.thisN,trials.thisIndex,thisRow.t,notes,Start_LSL.started,Start_LSL.stopped,Baseline.started,Baseline.stopped,Attention.started,BASELINE_code,BASELINE_tGlob,BASELINE_tLSL,ATTENTION_code,ATTENTION_tGlob,ATTENTION_tLSL,attention_cross.started,Attention.stopped,Stim.started,motor_cue.started,STIM_code,STIM_tGlob,STIM_tLSL,Stim.stopped,Attempt.started,attempt.started,ATTEMPT_code,ATTEMPT_tGlob,ATTEMPT_tLSL,Attempt.stopped,Rest.started,Rest.stopped,REST_code,REST_tGlob,REST_tLSL,attention_cross.stopped,attempt.stopped,participant,session,date,expName,expVersion,psychopyVersion,frameRate,expStart,
,,,,,,,,,,,0.017695699993055314,0.017772299994248897,,,,,,,,,,,,,,,,,,,,,,,,,,,,,,,177308,001,2025-09-01_15h00.31.835,Graz,,2025.1.1,None,2025-09-01 15h00.39.523908 -0300,
,,,,,,,,,,,,,0.01780379998672288,0.01784879999468103,,,,,,,,,,,,,,,,,,,,,,,,,,,,,177308,001,2025-09-01_15h00.31.835,Graz,,2025.1.1,None,2025-09-01 15h00.39.523908 -0300,
C:\Users\User\Documents\GitHub\real_time_bci\stims\left_arrow.png,LEFT_MI_STIM,0,0,0,0,0,0,4,0.04245470000023488,,,,,,0.02362409999477677,1,0.042477399998460896,72335.1782441,2,0.04252249999262858,72335.1782857,5.044460999997682,7.032974099987769,7.1186845999909565,7.1591532999882475,3,7.159177499997895,72342.2949438,8.312609899992822,8.312661899995874,8.337593899996136,5,8.337619999991148,72343.4733861,12.042799999995623,12.042841099988436,12.042904699992505,,,,,,177308,001,2025-09-01_15h00.31.835,Graz,,2025.1.1,None,2025-09-01 15h00.39.523908 -0300,
C:\Users\User\Documents\GitHub\real_time_bci\stims\right_arrow.png,RIGHT_MI_STIM,1,1,0,0,1,1,6,12.068419799994444,,,,,,12.043030499989982,,,,2,12.068500399996992,72347.204264,12.068419799994444,14.064483199996175,14.10951429999841,14.115993399987929,4,14.116012599988608,72349.2517788,15.31294699999853,15.312983099996927,15.33853409999574,5,15.338558799994644,72350.474325,19.044993599993177,19.04503009999462,19.045086799989804,6,12.068446799996309,72347.2042139,,,177308,001,2025-09-01_15h00.31.835,Graz,,2025.1.1,None,2025-09-01 15h00.39.523908 -0300,
C:\Users\User\Documents\GitHub\real_time_bci\stims\right_arrow.png,RIGHT_MI_STIM,2,2,0,0,2,2,7,19.07236429999466,,,,,,19.045224599991343,,,,2,19.0724412999989,72354.2082046,19.07236429999466,21.067273699998623,21.10524710000027,21.133276900000055,4,21.133302899994305,72356.2690693,22.298443299994688,22.29848869999114,22.323547599997255,5,22.32357839999895,72357.4593457,26.05867029998626,26.05871249998745,26.058769699986442,6,19.07239019998815,72354.2081563,,,177308,001,2025-09-01_15h00.31.835,Graz,,2025.1.1,None,2025-09-01 15h00.39.523908 -0300,
C:\Users\User\Documents\GitHub\real_time_bci\stims\left_arrow.png,LEFT_MI_STIM,3,3,0,0,3,3,3,26.06142889999319,,,,,,26.05887470000016,,,,2,26.061501099989982,72361.197266,26.06142889999319,28.05920539998624,28.098039799995604,28.13342019999982,3,28.1334468999994,72363.2692136,29.36295969999628,29.363002799989772,29.367146399992635,5,29.367169999997714,72364.5029368,33.06230759999016,33.062349199986784,33.06240739999339,6,26.061448799999198,72361.1972154,,,177308,001,2025-09-01_15h00.31.835,Graz,,2025.1.1,None,2025-09-01 15h00.39.523908 -0300,
C:\Users\User\Documents\GitHub\real_time_bci\stims\right_arrow.png,RIGHT_MI_STIM,4,4,0,0,4,4,5,33.067214699985925,,,,,,33.06251869999687,,,,2,33.06729559999076,72368.2030591,33.067214699985925,35.058187199989334,35.100392499996815,35.13456239999505,4,35.134594099989044,72370.2703614,36.31885589999729,36.31889779999619,36.34647559998848,5,36.346507099995506,72371.4822743,40.12141569999221,40.121457399989595,40.12160199999926,6,33.0672399999894,72368.2030071,35.13456239999505,,177308,001,2025-09-01_15h00.31.835,Graz,,2025.1.1,None,2025-09-01 15h00.39.523908 -0300,
C:\Users\User\Documents\GitHub\real_time_bci\stims\right_arrow.png,RIGHT_MI_STIM,5,5,0,0,5,5,9,40.12496079999255,,,,,,40.12172299998929,,,,2,40.125053899988416,72375.2608182,40.12496079999255,42.1505041999917,42.188844199990854,42.20404069998767,4,42.20405759999994,72377.3398232,43.38972019999346,43.38976079999702,43.39313569999649,5,43.39316109998617,72378.5289282,47.14681599999312,47.14685799999279,47.14691939999466,6,40.12499249998655,72375.2607617,,,177308,001,2025-09-01_15h00.31.835,Graz,,2025.1.1,None,2025-09-01 15h00.39.523908 -0300,
C:\Users\User\Documents\GitHub\real_time_bci\stims\left_arrow.png,LEFT_MI_STIM,6,6,0,0,6,6,0,47.15032389998669,,,,,,47.14703309998731,,,,2,47.15040339999541,72382.2861666,47.15032389998669,49.143384999988484,49.18182569999772,49.22409879999759,3,49.22412959999929,72384.3598965,50.43367209999997,50.43370999999752,50.4614128999965,5,50.46143699999084,72385.5972035,54.16927329999453,54.1693091999914,54.16936539999733,6,47.15035050000006,72382.286118,49.22409879999759,,177308,001,2025-09-01_15h00.31.835,Graz,,2025.1.1,None,2025-09-01 15h00.39.523908 -0300,
C:\Users\User\Documents\GitHub\real_time_bci\stims\left_arrow.png,LEFT_MI_STIM,7,7,0,0,7,7,1,54.19817219999095,,,,,,54.16947329998948,,,,2,54.19824999998673,72389.3340134,54.19817219999095,56.1859187999944,56.2289635999914,56.24044479998702,3,56.24047019999125,72391.3762368,57.43556539999554,57.43560529999377,57.43879589998687,5,57.438823499993305,72392.5745902,61.18737639999017,61.18741529999534,61.187474499995005,6,54.19819899999129,72389.3339653,,,177308,001,2025-09-01_15h00.31.835,Graz,,2025.1.1,None,2025-09-01 15h00.39.523908 -0300,
C:\Users\User\Documents\GitHub\real_time_bci\stims\left_arrow.png,LEFT_MI_STIM,8,8,0,0,8,8,2,61.19084049999947,,,,,,61.187585599996964,,,,2,61.19091769999068,72396.3266814,61.19084049999947,63.17773279998801,63.217788199995994,63.231395599999814,3,63.23141519998899,72398.3671808,64.48990789998788,64.48994539999694,64.51557099999627,5,64.51559739999357,72399.6513641,68.20104159999755,68.20108249998884,68.20114009999088,6,61.190865699987626,72396.3266323,63.231395599999814,,177308,001,2025-09-01_15h00.31.835,Graz,,2025.1.1,None,2025-09-01 15h00.39.523908 -0300,
C:\Users\User\Documents\GitHub\real_time_bci\stims\right_arrow.png,RIGHT_MI_STIM,9,9,0,0,9,9,8,68.2044831999956,,,,,,68.20125099999132,,,,2,68.20456009999907,72403.3403233,68.2044831999956,70.23108079998929,70.27442759998667,70.28780939998978,4,70.28783409998869,72405.4236006,71.46906409999065,71.46910769998794,71.49500379999517,5,71.49504460000026,72406.6308121,75.21020979998866,75.21024689999467,75.21030219999375,6,68.20450769999297,72403.340274,,,177308,001,2025-09-01_15h00.31.835,Graz,,2025.1.1,None,2025-09-01 15h00.39.523908 -0300,
C:\Users\User\Documents\GitHub\real_time_bci\stims\right_arrow.png,RIGHT_MI_STIM,10,0,1,1,0,10,5,75.21427429998585,,,,,,75.21041029998742,,,,2,75.21435769999516,72410.3501213,75.21427429998585,77.1981941999984,77.2374157999875,77.36893449998752,4,77.36897399999725,72412.5047424,78.48337729999912,78.48341399998753,78.48885479998717,5,78.48887809998996,72413.6246448,82.22402009999496,82.22405929998786,82.22411779999675,6,75.21430139998847,72410.3500681,77.36893449998752,,177308,001,2025-09-01_15h00.31.835,Graz,,2025.1.1,None,2025-09-01 15h00.39.523908 -0300,
C:\Users\User\Documents\GitHub\real_time_bci\stims\left_arrow.png,LEFT_MI_STIM,11,1,1,1,1,11,2,82.22751699999208,,,,,,82.22422569998889,,,,2,82.22758819999581,72417.3633518,82.22751699999208,84.21883729999536,84.25907309999457,84.32054899999639,3,84.32057999999961,72419.4563469,85.49352399999043,85.49356559998705,85.49749899999006,5,85.49752209999133,72420.6332886,89.24847669999872,89.24851689999923,89.24857709999196,6,82.22753769998963,72417.3633049,84.32054899999639,,177308,001,2025-09-01_15h00.31.835,Graz,,2025.1.1,None,2025-09-01 15h00.39.523908 -0300,
C:\Users\User\Documents\GitHub\real_time_bci\stims\right_arrow.png,RIGHT_MI_STIM,12,2,1,1,2,12,6,89.27484849999018,,,,,,89.24868969999079,,,,2,89.27492429999984,72424.4106878,89.27484849999018,91.2535852999863,91.29278469999554,91.30843559998902,4,91.30845129999216,72426.4442168,92.50405819999287,92.50409740000032,92.50652539999282,5,92.50654169998597,72427.6423078,96.24179529999674,96.24182509999082,96.24185869999928,6,89.27487349999137,72424.4106396,,96.26905269999406,177308,001,2025-09-01_15h00.31.835,Graz,,2025.1.1,None,2025-09-01 15h00.39.523908 -0300,
C:\Users\User\Documents\GitHub\real_time_bci\stims\left_arrow.png,LEFT_MI_STIM,13,3,1,1,3,13,4,96.26905269999406,,,,,,96.2419641999877,,,,2,96.2691358999873,72431.4048992,96.26905269999406,98.25174209999386,98.29696599999443,98.30414159999054,3,98.30416849999165,72433.4399364,99.53631509999104,99.53637339999841,99.53943579999031,5,99.53946529999666,72434.6752331,103.25554209999973,103.25558069998806,103.2556387999939,6,96.2690842999873,72431.4048512,,,177308,001,2025-09-01_15h00.31.835,Graz,,2025.1.1,None,2025-09-01 15h00.39.523908 -0300,
C:\Users\User\Documents\GitHub\real_time_bci\stims\left_arrow.png,LEFT_MI_STIM,14,4,1,1,4,14,0,103.25831719998678,,,,,,103.25574859998596,,,,2,103.25840529998823,72438.3941693,103.25831719998678,105.24677629998769,105.28602049998881,105.3020097999979,3,105.30203249999613,72440.4377991,106.51997059999849,106.52002169999469,106.54597699998703,5,106.5460013999982,72441.6817681,110.25587299998733,110.25591209999402,110.2559740999859,6,103.25834549999854,72438.3941142,105.3020097999979,,177308,001,2025-09-01_15h00.31.835,Graz,,2025.1.1,None,2025-09-01 15h00.39.523908 -0300,
C:\Users\User\Documents\GitHub\real_time_bci\stims\right_arrow.png,RIGHT_MI_STIM,15,5,1,1,5,15,9,110.28381509998871,,,,,,110.25609229999827,,,,2,110.2838911999861,72445.4196549,110.28381509998871,112.30353179998929,112.36065849999432,112.38464939998812,4,112.38467599998694,72447.5204424,113.52160109998658,113.52163949998794,113.52445839998836,5,113.52448049999657,72448.6602486,117.25809419999132,117.25813559998642,117.25819209999463,6,110.2838391999976,72445.4196058,,,177308,001,2025-09-01_15h00.31.835,Graz,,2025.1.1,None,2025-09-01 15h00.39.523908 -0300,
C:\Users\User\Documents\GitHub\real_time_bci\stims\left_arrow.png,LEFT_MI_STIM,16,6,1,1,6,16,1,117.26084039999114,,,,,,117.25829659998999,,,,2,117.26094559999183,72452.3967111,117.26084039999114,119.26104639998812,119.30050289999053,119.31473519999417,3,119.31475320000027,72454.4505217,120.51212369999848,120.51215879998927,120.53977079999459,5,120.53979459998664,72455.6755606,124.27007449998928,124.27010889998928,124.27015589999792,6,117.26086939999368,72452.3966373,,,177308,001,2025-09-01_15h00.31.835,Graz,,2025.1.1,None,2025-09-01 15h00.39.523908 -0300,
C:\Users\User\Documents\GitHub\real_time_bci\stims\right_arrow.png,RIGHT_MI_STIM,17,7,1,1,7,17,7,124.27292389998911,,,,,,124.27026509999996,,,,2,124.2730034999986,72459.4087678,124.27292389998911,126.27810059998592,126.31834639998851,126.38178879999032,4,126.38182009999582,72461.5175875,127.55229689998669,127.55234019999625,127.55543179999222,5,127.55545339999662,72462.6912212,131.2798378999869,131.27987619998748,131.27993279999646,6,124.27295809998759,72459.4087252,,,177308,001,2025-09-01_15h00.31.835,Graz,,2025.1.1,None,2025-09-01 15h00.39.523908 -0300,
C:\Users\User\Documents\GitHub\real_time_bci\stims\left_arrow.png,LEFT_MI_STIM,18,8,1,1,8,18,3,131.3079330999899,,,,,,131.28003939999326,,,,2,131.30801280000014,72466.4437764,131.3079330999899,133.2925310999999,133.33263059999445,133.3576663999993,3,133.35768959998677,72468.4934557,134.5478379999986,134.5478812999936,134.5738954999979,5,134.57392029999755,72469.7096869,138.28050999999687,138.28055029999814,138.28060859999096,6,131.3079582999926,72466.4437248,,,177308,001,2025-09-01_15h00.31.835,Graz,,2025.1.1,None,2025-09-01 15h00.39.523908 -0300,
C:\Users\User\Documents\GitHub\real_time_bci\stims\right_arrow.png,RIGHT_MI_STIM,19,9,1,1,9,19,8,138.30716109999048,,,,,,138.28071889998682,,,,2,138.3072308999981,72473.4429941,138.30716109999048,140.30069019999064,140.34083180000016,140.35428209998645,4,140.35429769998882,72475.4900634,141.55585559998872,141.55589409999084,141.55828699999256,5,141.55835249999654,72476.6941254,145.29202470000018,145.29206449999765,145.29212279999047,6,138.3071831999987,72473.4429491,,,177308,001,2025-09-01_15h00.31.835,Graz,,2025.1.1,None,2025-09-01 15h00.39.523908 -0300,
,,,,,,,,,,,,,,,,,,,,,,,,,,,,,,,,,,,,,,6,145.3202644999983,72480.4560316,,,,,,,,,,,
