img,event_label,thisN,thisTrialN,thisRepN,trials.thisRepN,trials.thisTrialN,trials.thisN,trials.thisIndex,thisRow.t,notes,Start_LSL.started,Start_LSL.stopped,Baseline.started,Baseline.stopped,Attention.started,BASELINE_code,BASELINE_tGlob,BASELINE_tLSL,ATTENTION_code,ATTENTION_tGlob,ATTENTION_tLSL,attention_cross.started,attention_cross.stopped,Attention.stopped,Stim.started,motor_cue.started,STIM_code,STIM_tGlob,STIM_tLSL,Stim.stopped,Attempt.started,attempt.started,ATTEMPT_code,ATTEMPT_tGlob,ATTEMPT_tLSL,Attempt.stopped,Rest.started,Rest.stopped,REST_code,REST_tGlob,REST_tLSL,participant,session,date,expName,expVersion,psychopyVersion,frameRate,expStart,
,,,,,,,,,,,0.06361579988151789,0.06368239992298186,,,,,,,,,,,,,,,,,,,,,,,,,,,,,,292876,001,2025-08-31_18h25.43.486,Graz,,2025.1.1,59.92527318737854,2025-08-31 18h25.53.523566 -0300,
,,,,,,,,,,,,,0.06371689983643591,0.063752599991858,,,,,,,,,,,,,,,,,,,,,,,,,,,,292876,001,2025-08-31_18h25.43.486,Graz,,2025.1.1,59.92527318737854,2025-08-31 18h25.53.523566 -0300,
C:\Users\User\Documents\GitHub\real_time_bci\stims\left_arrow.png,LEFT_MI_STIM,0,0,0,0,0,0,1,0.07059490005485713,,,,,,0.0678485999815166,1,0.0706082999240607,1503975.1761432,2,0.07064249995164573,1503975.1761753,5.072474000044167,7.109811799833551,7.059925599955022,7.103927199961618,7.109811799833551,3,7.109835899900645,1503982.2153722,8.318450799910352,8.318496299907565,8.328987499931827,5,8.329021799843758,1503983.4345614,12.068399099865928,12.06843309989199,12.068479900015518,,,,292876,001,2025-08-31_18h25.43.486,Graz,,2025.1.1,59.92527318737854,2025-08-31 18h25.53.523566 -0300,
C:\Users\User\Documents\GitHub\real_time_bci\stims\left_arrow.png,LEFT_MI_STIM,1,1,0,0,1,1,0,12.085205900017172,,,,,,12.068590099923313,,,,2,12.085258199833333,1503987.1907907,12.085205900017172,,14.072272799909115,14.108110599918291,14.11278699990362,3,14.112800099886954,1503989.2183352,15.324589699972421,15.32462459988892,15.341121499892324,5,15.34113679989241,1503990.4466723,19.081327799940482,19.081366499885917,19.08141850004904,6,12.085220099892467,1503987.1907556,292876,001,2025-08-31_18h25.43.486,Graz,,2025.1.1,59.92527318737854,2025-08-31 18h25.53.523566 -0300,
C:\Users\User\Documents\GitHub\real_time_bci\stims\left_arrow.png,LEFT_MI_STIM,2,2,0,0,2,2,4,19.09790419996716,,,,,,19.08152349991724,,,,2,19.097967699868605,1503994.2035002,19.09790419996716,,21.08506129984744,21.12092769984156,21.12545629986562,3,21.125467899953946,1503996.231003,22.337166199926287,22.337200799956918,22.353951500030234,5,22.353969499934465,1503997.459505,26.094363699899986,26.094405099982396,26.094464999856427,6,19.097925700014457,1503994.2034614,292876,001,2025-08-31_18h25.43.486,Graz,,2025.1.1,59.92527318737854,2025-08-31 18h25.53.523566 -0300,
C:\Users\User\Documents\GitHub\real_time_bci\stims\left_arrow.png,LEFT_MI_STIM,3,3,0,0,3,3,3,26.11088990001008,,,,,,26.09457499999553,,,,2,26.11096419999376,1504001.2164968,26.11088990001008,,28.097673899959773,28.136014000047,28.140142499934882,3,28.1401571999304,1504003.2456927,29.349960699910298,29.349995899945498,29.366620699875057,5,29.36664059991017,1504004.4721762,33.10706699988805,33.10710270004347,33.107156899990514,6,26.11091859987937,1504001.2164559,292876,001,2025-08-31_18h25.43.486,Graz,,2025.1.1,59.92527318737854,2025-08-31 18h25.53.523566 -0300,
C:\Users\User\Documents\GitHub\real_time_bci\stims\right_arrow.png,RIGHT_MI_STIM,4,4,0,0,4,4,6,33.12355739995837,,,,,,33.10726369987242,,,,2,33.12361119990237,1504008.2291437,33.12355739995837,,35.110602899920195,35.15128559991717,35.155394499888644,4,35.15540689998306,1504010.2609423,36.362937399884686,36.362970900023356,36.379451900022104,5,36.379466499900445,1504011.4850017,40.1197269000113,40.11976070003584,40.11981239984743,6,33.12357329996303,1504008.2291084,292876,001,2025-08-31_18h25.43.486,Graz,,2025.1.1,59.92527318737854,2025-08-31 18h25.53.523566 -0300,
C:\Users\User\Documents\GitHub\real_time_bci\stims\right_arrow.png,RIGHT_MI_STIM,5,5,0,0,5,5,9,40.13628669991158,,,,,,40.11991809983738,,,,2,40.13633599993773,1504015.2418684,40.13628669991158,,42.12355470005423,42.161878699902445,42.16619500005618,4,42.166209100047126,1504017.2717455,43.3757266998291,43.375760699855164,43.392334099859,5,43.39234729995951,1504018.4978823,47.13261649990454,47.132651099935174,47.13271529995836,6,40.13630050001666,1504015.2418356,292876,001,2025-08-31_18h25.43.486,Graz,,2025.1.1,59.92527318737854,2025-08-31 18h25.53.523566 -0300,
C:\Users\User\Documents\GitHub\real_time_bci\stims\right_arrow.png,RIGHT_MI_STIM,6,6,0,0,6,6,7,47.14915940002538,,,,,,47.13282229984179,,,,2,47.14922140003182,1504022.2547541,47.14915940002538,,49.13599049998447,49.172279899939895,49.17711679986678,4,49.17713029985316,1504024.2826653,50.38821140001528,50.38824520003982,50.40482779988088,5,50.404839999973774,1504025.5103751,54.145295599941164,54.14532979996875,54.14538050000556,6,47.14918229985051,1504022.2547182,292876,001,2025-08-31_18h25.43.486,Graz,,2025.1.1,59.92527318737854,2025-08-31 18h25.53.523566 -0300,
C:\Users\User\Documents\GitHub\real_time_bci\stims\right_arrow.png,RIGHT_MI_STIM,7,7,0,0,7,7,8,54.16198079986498,,,,,,54.145487000001594,,,,2,54.16202769987285,1504029.2675601,54.16198079986498,,56.14873409993015,56.184886399889365,56.189464499941096,4,56.18947899993509,1504031.2950141,57.40115149994381,57.40118689998053,57.4177381999325,5,57.41775320004672,1504032.5232887,61.15792130003683,61.15795539994724,61.157999800052494,6,54.16199339996092,1504029.2675284,292876,001,2025-08-31_18h25.43.486,Graz,,2025.1.1,59.92527318737854,2025-08-31 18h25.53.523566 -0300,
C:\Users\User\Documents\GitHub\real_time_bci\stims\left_arrow.png,LEFT_MI_STIM,8,8,0,0,8,8,2,61.174693800043315,,,,,,61.15810739994049,,,,2,61.17475220002234,1504036.2802848,61.174693800043315,,63.16179049992934,63.199402399826795,63.20410789991729,3,63.204120399896055,1504038.3096553,64.41394539992325,64.41398029983975,64.43071860005148,5,64.43073589983396,1504039.5362712,68.1706149999518,68.17064959998243,68.17069729999639,6,61.17471189983189,1504036.2802475,292876,001,2025-08-31_18h25.43.486,Graz,,2025.1.1,59.92527318737854,2025-08-31 18h25.53.523566 -0300,
C:\Users\User\Documents\GitHub\real_time_bci\stims\right_arrow.png,RIGHT_MI_STIM,9,9,0,0,9,9,5,68.18727490003221,,,,,,68.17080540000461,,,,2,68.18732999986969,1504043.2928628,68.18727490003221,,70.17459539999254,70.21173570002429,70.21655249991454,4,70.21656490000896,1504045.3220996,71.4267811998725,71.42681350000203,71.44350809999742,5,71.4435230998788,1504046.5490582,75.18363939994015,75.1836741999723,75.18372149998322,6,68.18729049991816,1504043.2928262,292876,001,2025-08-31_18h25.43.486,Graz,,2025.1.1,59.92527318737854,2025-08-31 18h25.53.523566 -0300,
C:\Users\User\Documents\GitHub\real_time_bci\stims\left_arrow.png,LEFT_MI_STIM,10,0,1,1,0,10,4,75.20010260003619,,,,,,75.18382709985599,,,,2,75.20015679998323,1504050.3056893,75.20010260003619,,77.18708179984242,77.22211589990184,77.22699799994007,3,77.22701029991731,1504052.3325451,78.43937220005319,78.43940429994836,78.45622409996577,5,78.45624749991111,1504053.5617833,82.19626879994757,82.19630369986407,82.19636749988422,6,75.20011670002714,1504050.3056524,292876,001,2025-08-31_18h25.43.486,Graz,,2025.1.1,59.92527318737854,2025-08-31 18h25.53.523566 -0300,
C:\Users\User\Documents\GitHub\real_time_bci\stims\left_arrow.png,LEFT_MI_STIM,11,1,1,1,1,11,0,82.21302899997681,,,,,,82.19653679989278,,,,2,82.21308539994061,1504057.3186181,82.21302899997681,,84.20010269992054,84.23510149982758,84.23995309998281,3,84.23996969987638,1504059.3455072,85.45238389982842,85.45241849985905,85.46898729982786,5,85.46899969992228,1504060.5745347,89.20902039995417,89.2090528998524,89.20909619983286,6,82.21304519986734,1504057.3185807,292876,001,2025-08-31_18h25.43.486,Graz,,2025.1.1,59.92527318737854,2025-08-31 18h25.53.523566 -0300,
C:\Users\User\Documents\GitHub\real_time_bci\stims\right_arrow.png,RIGHT_MI_STIM,12,2,1,1,2,12,6,89.22576419985853,,,,,,89.20921029988676,,,,2,89.22582449996844,1504064.3313572,89.22576419985853,,91.21263139997609,91.24844380002469,91.25299880001694,4,91.25301230000332,1504066.358548,92.46522499993443,92.46526289987378,92.48162769991904,5,92.4816435999237,1504067.5871788,96.2219118999783,96.22194839990698,96.2220008999575,6,89.22578340000473,1504064.3313189,292876,001,2025-08-31_18h25.43.486,Graz,,2025.1.1,59.92527318737854,2025-08-31 18h25.53.523566 -0300,
C:\Users\User\Documents\GitHub\real_time_bci\stims\left_arrow.png,LEFT_MI_STIM,13,3,1,1,3,13,1,96.23856289987452,,,,,,96.22210659994744,,,,2,96.2386145000346,1504071.3441472,96.23856289987452,,98.22574339993298,98.26090699993074,98.26583499996923,3,98.26584739983082,1504073.3713825,99.47784609999508,99.47788159991615,99.4944952998776,5,99.49451279989444,1504074.6000481,103.2347697999794,103.2348020998761,103.23484529997222,6,96.23857599985786,1504071.3441111,292876,001,2025-08-31_18h25.43.486,Graz,,2025.1.1,59.92527318737854,2025-08-31 18h25.53.523566 -0300,
C:\Users\User\Documents\GitHub\real_time_bci\stims\right_arrow.png,RIGHT_MI_STIM,14,4,1,1,4,14,5,103.25117029994726,,,,,,103.23495249985717,,,,2,103.25121769984253,1504078.3567501,103.25117029994726,,105.2385229000356,105.27520859986544,105.28005860000849,4,105.28007139987312,1504080.3856064,106.49065919988789,106.49069599993527,106.50722759985365,5,106.50724309985526,1504081.6127786,110.24740380002186,110.24744099983945,110.24749509990215,6,103.25118299992755,1504078.356718,292876,001,2025-08-31_18h25.43.486,Graz,,2025.1.1,59.92527318737854,2025-08-31 18h25.53.523566 -0300,
C:\Users\User\Documents\GitHub\real_time_bci\stims\right_arrow.png,RIGHT_MI_STIM,15,5,1,1,5,15,7,110.26404849998653,,,,,,110.24761429987848,,,,2,110.26412709988654,1504085.3696603,110.26404849998653,,112.25098269991577,112.28717839997262,112.29205579985864,4,112.29206969984807,1504087.3976075,113.50331859989092,113.5033505000174,113.52017789985985,5,113.52019619988278,1504088.6257315,117.26022779988125,117.26026150002144,117.26031020004302,6,110.26407220005058,1504085.3696093,292876,001,2025-08-31_18h25.43.486,Graz,,2025.1.1,59.92527318737854,2025-08-31 18h25.53.523566 -0300,
C:\Users\User\Documents\GitHub\real_time_bci\stims\left_arrow.png,LEFT_MI_STIM,16,6,1,1,6,16,2,117.27694360003807,,,,,,117.2604201999493,,,,2,117.27699499996379,1504092.3825273,117.27694360003807,,119.2639204999432,119.30037149996497,119.30518849985674,3,119.30520139983855,1504094.4107362,120.51613410003483,120.51616650004871,120.53285439987667,5,120.53287129988894,1504095.6384066,124.27294289995916,124.27297519985586,124.27301789983176,6,117.27695850003511,1504092.382494,292876,001,2025-08-31_18h25.43.486,Graz,,2025.1.1,59.92527318737854,2025-08-31 18h25.53.523566 -0300,
C:\Users\User\Documents\GitHub\real_time_bci\stims\left_arrow.png,LEFT_MI_STIM,17,7,1,1,7,17,3,124.28983419993892,,,,,,124.27312569995411,,,,2,124.28989150002599,1504099.395424,124.28983419993892,,126.27662809984758,126.31306950002909,126.31765510002151,3,126.3176678000018,1504101.423203,127.5291565998923,127.52919090003707,127.54573479993269,5,127.54575419984758,1504102.6512901,131.28604709985666,131.28608280001208,131.28613290004432,6,124.28985089994967,1504099.3953866,292876,001,2025-08-31_18h25.43.486,Graz,,2025.1.1,59.92527318737854,2025-08-31 18h25.53.523566 -0300,
C:\Users\User\Documents\GitHub\real_time_bci\stims\right_arrow.png,RIGHT_MI_STIM,18,8,1,1,8,18,8,131.30264759995043,,,,,,131.2862372000236,,,,2,131.30270039988682,1504106.4082328,131.30264759995043,,133.2895659999922,133.32846229989082,133.33329309988767,4,133.33330609998666,1504108.4388413,134.5417461998295,134.5417808999773,134.55834209988825,5,134.5583569998853,1504109.6638921,138.29870499996468,138.2987390998751,138.29879359994084,6,131.30266309995204,1504106.4081985,292876,001,2025-08-31_18h25.43.486,Graz,,2025.1.1,59.92527318737854,2025-08-31 18h25.53.523566 -0300,
C:\Users\User\Documents\GitHub\real_time_bci\stims\right_arrow.png,RIGHT_MI_STIM,19,9,1,1,9,19,9,138.31518929987215,,,,,,138.29889809992164,,,,2,138.31524270004593,1504113.4207753,138.31518929987215,,140.3022415000014,140.34399049985223,140.34879629989155,4,140.34880929999053,1504115.4543451,141.55460999999195,141.55464460002258,141.57130269985646,5,141.57131919986568,1504116.6768542,145.31151489983313,145.31154859997332,145.31159579986706,6,138.3152054999955,1504113.4207406,292876,001,2025-08-31_18h25.43.486,Graz,,2025.1.1,59.92527318737854,2025-08-31 18h25.53.523566 -0300,
,,,,,,,,,,,,,,,,,,,,,,,,,,,,,,,,,,,,,,,6,145.32797609991394,1504120.4335121,,,,,,,,,
