img,event_label,thisN,thisTrialN,thisRepN,trials.thisRepN,trials.thisTrialN,trials.thisN,trials.thisIndex,thisRow.t,notes,Start_LSL.started,Start_LSL.stopped,Baseline.started,Baseline.stopped,Attention.started,BASELINE_code,BASELINE_tGlob,BASELINE_tLSL,ATTENTION_code,ATTENTION_tGlob,ATTENTION_tLSL,attention_cross.started,Attention.stopped,Stim.started,motor_cue.started,STIM_code,STIM_tGlob,STIM_tLSL,Stim.stopped,Attempt.started,attempt.started,ATTEMPT_code,ATTEMPT_tGlob,ATTEMPT_tLSL,Attempt.stopped,Rest.started,Rest.stopped,REST_code,REST_tGlob,REST_tLSL,attention_cross.stopped,attempt.stopped,participant,session,date,expName,expVersion,psychopyVersion,frameRate,expStart,
,,,,,,,,,,,0.039197900012368336,0.12839270000404213,,,,,,,,,,,,,,,,,,,,,,,,,,,,,,,336519,001,2025-09-01_14h51.57.365,Graz,,2025.1.1,None,2025-09-01 14h52.06.188164 -0300,
,,,,,,,,,,,,,0.12844710001081694,0.1285045000113314,,,,,,,,,,,,,,,,,,,,,,,,,,,,,336519,001,2025-09-01_14h51.57.365,Graz,,2025.1.1,None,2025-09-01 14h52.06.188164 -0300,
C:\Users\User\Documents\GitHub\real_time_bci\stims\left_arrow.png,LEFT_MI_STIM,0,0,0,0,0,0,0,0.13530660000105854,,,,,,0.13269680000666995,1,0.13531979999970645,71821.9136655,2,0.13535460000275634,71821.9136978,5.176559300001827,7.154574500003946,7.235408100008499,7.3047718000016175,3,7.3047978000104195,71829.0831454,8.399925500008976,8.39996290000272,8.41833850000694,5,8.418364299999666,71830.196712,12.129867000010563,12.129906000001938,12.129968599998392,,,,,,336519,001,2025-09-01_14h51.57.365,Graz,,2025.1.1,None,2025-09-01 14h52.06.188164 -0300,
C:\Users\User\Documents\GitHub\real_time_bci\stims\right_arrow.png,RIGHT_MI_STIM,1,1,0,0,1,1,9,12.154832800006261,,,,,,12.130080200004159,,,,2,12.154917899999418,71833.9332619,12.154832800006261,14.138440900002024,14.187256900011562,14.23320670000976,4,14.233233600010863,71836.0115814,15.393262800003868,15.39330000001064,15.41973880000296,5,15.419763600002625,71837.1981105,19.13974510000844,19.139780500001507,19.13984139999957,6,12.154855800006771,71833.9332054,,,336519,001,2025-09-01_14h51.57.365,Graz,,2025.1.1,None,2025-09-01 14h52.06.188164 -0300,
C:\Users\User\Documents\GitHub\real_time_bci\stims\left_arrow.png,LEFT_MI_STIM,2,2,0,0,2,2,2,19.142573300006916,,,,,,19.139948000010918,,,,2,19.14265300000261,71840.9209981,19.142573300006916,21.129155000002356,21.165189400009695,21.21110490000865,3,21.2111353000073,71842.9894823,22.401391899999,22.401430300000357,22.40446950000478,5,22.404538300004788,71844.1828892,26.137012600011076,26.137042100002873,26.137075400009053,6,19.142591900003026,71840.9209392,21.21110490000865,26.161945200001355,336519,001,2025-09-01_14h51.57.365,Graz,,2025.1.1,None,2025-09-01 14h52.06.188164 -0300,
C:\Users\User\Documents\GitHub\real_time_bci\stims\right_arrow.png,RIGHT_MI_STIM,3,3,0,0,3,3,6,26.161945200001355,,,,,,26.137183800005005,,,,2,26.162035500005004,71847.940381,26.161945200001355,28.15810220000276,28.195930900008534,28.209924300012062,4,28.20995540000149,71849.9883021,29.41147940000519,29.411516799998935,29.415335700003197,5,29.415363500011154,71851.1937115,33.1571210000111,33.15716030000476,33.15721740000299,6,26.161979200012865,71847.9403261,,,336519,001,2025-09-01_14h51.57.365,Graz,,2025.1.1,None,2025-09-01 14h52.06.188164 -0300,
C:\Users\User\Documents\GitHub\real_time_bci\stims\right_arrow.png,RIGHT_MI_STIM,4,4,0,0,4,4,7,33.159827600000426,,,,,,33.157331000009435,,,,2,33.15990949999832,71854.9382536,33.159827600000426,35.16429120000976,35.202103200004785,35.21381860000838,4,35.21384700000635,71856.9921952,36.41172230000666,36.41176300001098,36.414772900010576,5,36.41479239999899,71858.1931393,40.17282390000764,40.17286910000257,40.1729350000096,6,33.15984950000711,71854.9381967,,,336519,001,2025-09-01_14h51.57.365,Graz,,2025.1.1,None,2025-09-01 14h52.06.188164 -0300,
C:\Users\User\Documents\GitHub\real_time_bci\stims\left_arrow.png,LEFT_MI_STIM,5,5,0,0,5,5,1,40.20090700000583,,,,,,40.17304590001004,,,,2,40.20099100000516,71861.9793351,40.20090700000583,42.1854280000116,42.222294700011844,42.26251980000234,3,42.262555200009956,71864.0409041,43.42346090001229,43.423501600002055,43.45047590001195,5,43.45049940000172,71865.2288466,47.179824100006954,47.179862800010596,47.17992390001018,6,40.20093180000549,71861.9792787,,,336519,001,2025-09-01_14h51.57.365,Graz,,2025.1.1,None,2025-09-01 14h52.06.188164 -0300,
C:\Users\User\Documents\GitHub\real_time_bci\stims\right_arrow.png,RIGHT_MI_STIM,6,6,0,0,6,6,8,47.20760050001263,,,,,,47.180036800011294,,,,2,47.20769520000613,71868.9860419,47.20760050001263,49.276961600000504,49.31585949999862,49.4086621000024,4,49.408687400005874,71871.1870347,50.433522800012724,50.43356540000241,50.4852169000078,5,50.485241700007464,71872.2635884,54.206543100008275,54.20657960000972,54.20663480000803,6,47.20762640000612,71868.9859738,,,336519,001,2025-09-01_14h51.57.365,Graz,,2025.1.1,None,2025-09-01 14h52.06.188164 -0300,
C:\Users\User\Documents\GitHub\real_time_bci\stims\right_arrow.png,RIGHT_MI_STIM,7,7,0,0,7,7,5,54.23432160000084,,,,,,54.20674300000246,,,,2,54.234402700007195,71876.0127462,54.23432160000084,56.2148087000096,56.252141700009815,56.29824490001192,4,56.29828010000347,71878.0766284,57.484357599998475,57.48439500000677,57.486828600012814,5,57.48685070000647,71879.2651986,61.20793540000159,61.20797319999838,61.20802910000202,6,54.234345700009726,71876.0126929,,,336519,001,2025-09-01_14h51.57.365,Graz,,2025.1.1,None,2025-09-01 14h52.06.188164 -0300,
C:\Users\User\Documents\GitHub\real_time_bci\stims\left_arrow.png,LEFT_MI_STIM,8,8,0,0,8,8,4,61.23531040000671,,,,,,61.208137300011,,,,2,61.23540030000731,71883.0137438,61.23531040000671,63.25476830000116,63.2903723000054,63.30932990000292,3,63.30935020001198,71885.0876969,64.50901800001157,64.50905510000302,64.53733300000022,5,64.53736230000504,71886.3157099,68.23159570001008,68.23163660000137,68.23169490000873,6,61.2353398000123,71883.0136878,,,336519,001,2025-09-01_14h51.57.365,Graz,,2025.1.1,None,2025-09-01 14h52.06.188164 -0300,
C:\Users\User\Documents\GitHub\real_time_bci\stims\left_arrow.png,LEFT_MI_STIM,9,9,0,0,9,9,3,68.25821460000589,,,,,,68.23180920000596,,,,2,68.2582953000092,71890.0366389,68.25821460000589,70.24085630000627,70.27665179999894,70.29294030000165,3,70.29296220000833,71892.0713088,71.48480950000521,71.48485330000403,71.48791140000685,5,71.48799570000847,71893.2663524,75.22922560000734,75.22925620000751,75.2292909000098,6,68.25823940000555,71890.0365869,,75.25483960000565,336519,001,2025-09-01_14h51.57.365,Graz,,2025.1.1,None,2025-09-01 14h52.06.188164 -0300,
C:\Users\User\Documents\GitHub\real_time_bci\stims\right_arrow.png,RIGHT_MI_STIM,10,0,1,1,0,10,8,75.25483960000565,,,,,,75.22940050000034,,,,2,75.25492220000888,71897.0332661,75.25483960000565,77.24048980000953,77.27829010000278,77.3134626000101,4,77.31348710000748,71899.0918339,78.47994260000996,78.47998910000024,78.50485920000938,5,78.504883600006,71900.2832301,82.23830219999945,82.23835270000563,82.23842069999955,6,75.25486840000667,71897.0332156,,,336519,001,2025-09-01_14h51.57.365,Graz,,2025.1.1,None,2025-09-01 14h52.06.188164 -0300,
C:\Users\User\Documents\GitHub\real_time_bci\stims\left_arrow.png,LEFT_MI_STIM,11,1,1,1,1,11,1,82.24198950000573,,,,,,82.23855550000735,,,,2,82.2420998000016,71904.020445,82.24198950000573,84.23369580000872,84.2707051000034,84.28306210000301,3,84.28308290000132,71906.0614294,85.48856610000075,85.48864039999899,85.51435870000569,5,85.51438060001237,71907.2927273,89.27869980000833,89.27873950000503,89.27879670000402,6,82.24202430000878,71904.0203727,84.28306210000301,,336519,001,2025-09-01_14h51.57.365,Graz,,2025.1.1,None,2025-09-01 14h52.06.188164 -0300,
C:\Users\User\Documents\GitHub\real_time_bci\stims\left_arrow.png,LEFT_MI_STIM,12,2,1,1,2,12,2,89.28209639999841,,,,,,89.27891069999896,,,,2,89.28220470000815,71911.0605503,89.28209639999841,91.26769069999864,91.30551950000518,91.34266420001222,3,91.34269420000783,71913.1210411,92.53204620000906,92.53208520000044,92.5351437000063,5,92.53517470000952,71914.3135236,96.27992929999891,96.27997460000915,96.28003400001035,6,89.28212329999951,71911.0604716,91.34266420001222,,336519,001,2025-09-01_14h51.57.365,Graz,,2025.1.1,None,2025-09-01 14h52.06.188164 -0300,
C:\Users\User\Documents\GitHub\real_time_bci\stims\right_arrow.png,RIGHT_MI_STIM,13,3,1,1,3,13,6,96.30573140000342,,,,,,96.28015020000748,,,,2,96.30581790000724,71918.084163,96.30573140000342,98.30335180000111,98.34230210000533,98.35448530000576,4,98.35450820000551,71920.1328551,99.55482470001152,99.5548792000045,99.58200600001146,5,99.58203689999937,71921.3603852,103.30289020000782,103.30292710001231,103.30298849999963,6,96.3057545000047,71918.084101,,,336519,001,2025-09-01_14h51.57.365,Graz,,2025.1.1,None,2025-09-01 14h52.06.188164 -0300,
C:\Users\User\Documents\GitHub\real_time_bci\stims\right_arrow.png,RIGHT_MI_STIM,14,4,1,1,4,14,7,103.30556440001237,,,,,,103.30310000000463,,,,2,103.30568210000638,71925.0840303,103.30556440001237,105.29576649999944,105.33278840000276,105.36799820000306,4,105.36802900000475,71927.1463765,106.56404650000331,106.56408530000772,106.58891640001093,5,106.58894390000205,71928.3672913,110.33106409999891,110.33110310000484,110.33116130001144,6,103.30559740000172,71925.0839476,105.36799820000306,,336519,001,2025-09-01_14h51.57.365,Graz,,2025.1.1,None,2025-09-01 14h52.06.188164 -0300,
C:\Users\User\Documents\GitHub\real_time_bci\stims\right_arrow.png,RIGHT_MI_STIM,15,5,1,1,5,15,5,110.3345590000099,,,,,,110.33127900000545,,,,2,110.3346836000128,71932.1130326,110.3345590000099,112.34120059999987,112.38318470001104,112.39277380000567,4,112.3928031000105,71934.1711506,113.5970049000025,113.59704430001148,113.62175320000097,5,113.62177950001205,71935.4001268,117.34298549999949,117.34302780000144,117.34308980000787,6,110.33458310000424,71932.1129327,,,336519,001,2025-09-01_14h51.57.365,Graz,,2025.1.1,None,2025-09-01 14h52.06.188164 -0300,
C:\Users\User\Documents\GitHub\real_time_bci\stims\right_arrow.png,RIGHT_MI_STIM,16,6,1,1,6,16,9,117.34708870000031,,,,,,117.34320519999892,,,,2,117.34715210000286,71939.1254956,117.34708870000031,119.33508540000184,119.37342550000176,119.38632440000947,4,119.38634580001235,71941.1646921,120.60487560000911,120.60491500000353,120.63095770000655,5,120.63098170000012,71942.4093287,124.36552140000276,124.36555719999888,124.36561230001098,6,117.34710600000108,71939.1254524,119.38632440000947,,336519,001,2025-09-01_14h51.57.365,Graz,,2025.1.1,None,2025-09-01 14h52.06.188164 -0300,
C:\Users\User\Documents\GitHub\real_time_bci\stims\left_arrow.png,LEFT_MI_STIM,17,7,1,1,7,17,4,124.36822860001121,,,,,,124.36572330001218,,,,2,124.3683175000042,71946.1466636,124.36822860001121,126.37341930001276,126.41104030000861,126.42320299999847,3,126.42321720000473,71948.2015633,127.63359630000195,127.63363450000179,127.63601370000106,5,127.63603380000859,71949.4143817,131.381375500001,131.38143420001143,131.38149990000238,6,124.36825100000715,71946.1466006,,,336519,001,2025-09-01_14h51.57.365,Graz,,2025.1.1,None,2025-09-01 14h52.06.188164 -0300,
C:\Users\User\Documents\GitHub\real_time_bci\stims\left_arrow.png,LEFT_MI_STIM,18,8,1,1,8,18,0,131.40658770001028,,,,,,131.38162050000392,,,,2,131.40670690000115,71953.185053,131.40658770001028,133.38419100000465,133.42066210000485,133.43507350000436,3,133.4350884000014,71955.2134347,134.6742971000058,134.67433880000317,134.67752050000126,5,134.67754680001235,71956.4558995,138.39260710000235,138.3926463000098,138.39270340000803,6,131.40663009999844,71953.1849801,,,336519,001,2025-09-01_14h51.57.365,Graz,,2025.1.1,None,2025-09-01 14h52.06.188164 -0300,
C:\Users\User\Documents\GitHub\real_time_bci\stims\left_arrow.png,LEFT_MI_STIM,19,9,1,1,9,19,3,138.39596000000893,,,,,,138.39281960000517,,,,2,138.39602440000453,71960.1743685,138.39596000000893,140.39149590001034,140.42746110000007,140.44107410000288,3,140.44110609999916,71962.2194541,141.66693790000863,141.6669799000083,141.69351460000325,5,141.69354010000825,71963.4718872,145.4151608000102,145.41519810000318,145.41525570000522,6,138.3959765000036,71960.1743236,140.44107410000288,,336519,001,2025-09-01_14h51.57.365,Graz,,2025.1.1,None,2025-09-01 14h52.06.188164 -0300,
,,,,,,,,,,,,,,,,,,,,,,,,,,,,,,,,,,,,,,6,145.41711500000383,71967.1954616,,,,,,,,,,,
