img,event_label,thisN,thisTrialN,thisRepN,trials.thisRepN,trials.thisTrialN,trials.thisN,trials.thisIndex,thisRow.t,notes,Start_LSL.started,Start_LSL.stopped,Baseline.started,Baseline.stopped,Attention.started,BASELINE_code,BASELINE_tGlob,BASELINE_tLSL,ATTENTION_code,ATTENTION_tGlob,ATTENTION_tLSL,attention_cross.started,attention_cross.stopped,Attention.stopped,Stim.started,motor_cue.started,STIM_code,STIM_tGlob,STIM_tLSL,Stim.stopped,Attempt.started,attempt.started,ATTEMPT_code,ATTEMPT_tGlob,ATTEMPT_tLSL,Attempt.stopped,Rest.started,Rest.stopped,REST_code,REST_tGlob,REST_tLSL,participant,session,date,expName,expVersion,psychopyVersion,frameRate,expStart,
,,,,,,,,,,,0.090889299986884,0.09095549979247153,,,,,,,,,,,,,,,,,,,,,,,,,,,,,,493017,001,2025-08-28_12h36.23.636,Graz,,2025.1.1,59.845908779069575,2025-08-28 12h36.31.761158 -0300,
,,,,,,,,,,,,,0.09098539990372956,0.09102399996481836,,,,,,,,,,,,,,,,,,,,,,,,,,,,493017,001,2025-08-28_12h36.23.636,Graz,,2025.1.1,59.845908779069575,2025-08-28 12h36.31.761158 -0300,
C:\Users\User\Documents\GitHub\real_time_bci\stims\left_arrow.png,LEFT_MI_STIM,0,0,0,0,0,0,2,0.09717699978500605,,,,,,0.09530379995703697,1,0.09719469980336726,1223800.720397,2,0.0972453998401761,1223800.7204442,5.093807199969888,7.134529199916869,7.0810963998083025,7.127636699937284,7.134529199916869,3,7.134559599915519,1223807.7577614,8.350000399863347,8.350043199956417,8.366569599835202,5,8.36659049987793,1223808.989792,12.106799999950454,12.106837499886751,12.106893399963155,,,,493017,001,2025-08-28_12h36.23.636,Graz,,2025.1.1,59.845908779069575,2025-08-28 12h36.31.761158 -0300,
C:\Users\User\Documents\GitHub\real_time_bci\stims\right_arrow.png,RIGHT_MI_STIM,1,1,0,0,1,1,7,12.123425799887627,,,,,,12.10700669977814,,,,2,12.123502699891105,1223812.7467019,12.123425799887627,,14.11037589982152,14.148165199905634,14.152963999891654,4,14.152976899873465,1223814.7761778,15.362735999980941,15.362777499947697,15.379707199987024,5,15.379739299882203,1223816.0029444,19.119676099857315,19.119713499909267,19.119771899888292,6,12.123447999823838,1223812.74665,493017,001,2025-08-28_12h36.23.636,Graz,,2025.1.1,59.845908779069575,2025-08-28 12h36.31.761158 -0300,
C:\Users\User\Documents\GitHub\real_time_bci\stims\left_arrow.png,LEFT_MI_STIM,2,2,0,0,2,2,3,19.137937099905685,,,,,,19.119894199771807,,,,2,19.13801579992287,1223819.761215,19.137937099905685,,21.123353299917653,21.161335199838504,21.166087299818173,3,21.16611439990811,1223821.7893169,22.37640479998663,22.376453099772334,22.39216659986414,5,22.392189499922097,1223823.015392,26.13237309991382,26.13241109997034,26.132470899960026,6,19.137962499866262,1223819.7611647,493017,001,2025-08-28_12h36.23.636,Graz,,2025.1.1,59.845908779069575,2025-08-28 12h36.31.761158 -0300,
C:\Users\User\Documents\GitHub\real_time_bci\stims\left_arrow.png,LEFT_MI_STIM,3,3,0,0,3,3,0,26.148964899824932,,,,,,26.13259349996224,,,,2,26.14906259998679,1223826.7722647,26.148964899824932,,28.138020199956372,28.179161299951375,28.18487299978733,3,28.184899099869654,1223828.8081014,29.388446799945086,29.38848469988443,29.404951499775052,5,29.404971599811688,1223830.0281734,33.14559489977546,33.14564699982293,33.14571319986135,6,26.148987599881366,1223826.7721906,493017,001,2025-08-28_12h36.23.636,Graz,,2025.1.1,59.845908779069575,2025-08-28 12h36.31.761158 -0300,
C:\Users\User\Documents\GitHub\real_time_bci\stims\right_arrow.png,RIGHT_MI_STIM,4,4,0,0,4,4,9,33.162328199949116,,,,,,33.145821399986744,,,,2,33.162408399861306,1223833.7856074,33.162328199949116,,35.1496464998927,35.19144359999336,35.1961796998512,4,35.19622839987278,1223835.8194354,36.401036499999464,36.40107449982315,36.417777999769896,5,36.41779949981719,1223837.041001,40.15800889977254,40.158046499826014,40.15810909983702,6,33.16235199989751,1223833.7855541,493017,001,2025-08-28_12h36.23.636,Graz,,2025.1.1,59.845908779069575,2025-08-28 12h36.31.761158 -0300,
C:\Users\User\Documents\GitHub\real_time_bci\stims\right_arrow.png,RIGHT_MI_STIM,5,5,0,0,5,5,6,40.17462109983899,,,,,,40.15822449978441,,,,2,40.17469869996421,1223840.7978979,40.17462109983899,,42.16227229987271,42.203929599840194,42.20882919989526,4,42.20884139998816,1223842.8320423,43.41397879994474,43.41401659999974,43.43059939984232,5,43.43062159977853,1223844.0538236,47.17082339990884,47.170862399972975,47.170919499825686,6,40.17464499990456,1223840.7978466,493017,001,2025-08-28_12h36.23.636,Graz,,2025.1.1,59.845908779069575,2025-08-28 12h36.31.761158 -0300,
C:\Users\User\Documents\GitHub\real_time_bci\stims\right_arrow.png,RIGHT_MI_STIM,6,6,0,0,6,6,5,47.18734229984693,,,,,,47.171034399885684,,,,2,47.18741979985498,1223847.8106197,47.18734229984693,,49.17441319976933,49.21784709999338,49.22219629981555,4,49.22221539984457,1223849.8454201,50.426838599843904,50.4268923997879,50.443310199771076,5,50.443336999975145,1223851.0665401,54.18370069982484,54.18374059977941,54.18380169989541,6,47.18736479990184,1223847.8105666,493017,001,2025-08-28_12h36.23.636,Graz,,2025.1.1,59.845908779069575,2025-08-28 12h36.31.761158 -0300,
C:\Users\User\Documents\GitHub\real_time_bci\stims\left_arrow.png,LEFT_MI_STIM,7,7,0,0,7,7,4,54.20022549992427,,,,,,54.18392989994027,,,,2,54.200297499774024,1223854.8234965,54.20022549992427,,56.18733219988644,56.227459699846804,56.23232899978757,3,56.23235319997184,1223856.8555548,57.43979419977404,57.439878199948,57.45630749990232,5,57.45633769989945,1223858.0795404,61.196402499917895,61.19644859991968,61.19651359994896,6,54.20024529984221,1223854.8234474,493017,001,2025-08-28_12h36.23.636,Graz,,2025.1.1,59.845908779069575,2025-08-28 12h36.31.761158 -0300,
C:\Users\User\Documents\GitHub\real_time_bci\stims\left_arrow.png,LEFT_MI_STIM,8,8,0,0,8,8,1,61.212998599978164,,,,,,61.19663479994051,,,,2,61.21307079982944,1223861.8362697,61.212998599978164,,63.200208799913526,63.24150119978003,63.24675469985232,3,63.24677849980071,1223863.8699807,64.45224799984135,64.45229039993137,64.46900699986145,5,64.46902759978548,1223865.0922294,68.20916529977694,68.20921479980461,68.20928199985065,6,61.213019399903715,1223861.836221,493017,001,2025-08-28_12h36.23.636,Graz,,2025.1.1,59.845908779069575,2025-08-28 12h36.31.761158 -0300,
C:\Users\User\Documents\GitHub\real_time_bci\stims\right_arrow.png,RIGHT_MI_STIM,9,9,0,0,9,9,8,68.22587439999916,,,,,,68.20940649998374,,,,2,68.2259515998885,1223868.8491506,68.22587439999916,,70.21279699984007,70.25216609984636,70.25864649983123,4,70.25868139998056,1223870.8818863,71.46523709991015,71.46528029977344,71.48157909978181,5,71.48160009994172,1223872.1048018,75.2223723998759,75.2224582999479,75.22254609991796,6,68.2258977999445,1223868.8490998,493017,001,2025-08-28_12h36.23.636,Graz,,2025.1.1,59.845908779069575,2025-08-28 12h36.31.761158 -0300,
C:\Users\User\Documents\GitHub\real_time_bci\stims\left_arrow.png,LEFT_MI_STIM,10,0,1,1,0,10,3,75.23853229987435,,,,,,75.22270989976823,,,,2,75.23861059988849,1223875.8618096,75.23853229987435,,77.22565869987011,77.26425299979746,77.26835409994237,3,77.26836679992266,1223877.8915676,78.47799659986049,78.4780353999231,78.4947387999855,5,78.49476569984108,1223879.1179699,82.2349140997976,82.23495389986783,82.23501389985904,6,75.23855459992774,1223875.8617607,493017,001,2025-08-28_12h36.23.636,Graz,,2025.1.1,59.845908779069575,2025-08-28 12h36.31.761158 -0300,
C:\Users\User\Documents\GitHub\real_time_bci\stims\right_arrow.png,RIGHT_MI_STIM,11,1,1,1,1,11,6,82.25131899979897,,,,,,82.23514069989324,,,,2,82.2513882999774,1223882.8745876,82.25131899979897,,84.2382793999277,84.28342379978858,84.28784929984249,4,84.28786989999935,1223884.9110712,85.49078219989315,85.49082349985838,85.50744869979098,5,85.50747209996916,1223886.1306749,89.24758319999091,89.24762979988009,89.24768809997477,6,82.25133849983104,1223882.8745399,493017,001,2025-08-28_12h36.23.636,Graz,,2025.1.1,59.845908779069575,2025-08-28 12h36.31.761158 -0300,
C:\Users\User\Documents\GitHub\real_time_bci\stims\left_arrow.png,LEFT_MI_STIM,12,2,1,1,2,12,4,89.26408329978585,,,,,,89.24781309999526,,,,2,89.26417799992487,1223889.887381,89.26408329978585,,91.2512790998444,91.2969491998665,91.30122569995001,3,91.3012517997995,1223891.9244539,92.5034184998367,92.50345769990236,92.52008159994148,5,92.52010319987312,1223893.1433047,96.2602956998162,96.2603334998712,96.260398699902,6,89.26410779985599,1223889.8873098,493017,001,2025-08-28_12h36.23.636,Graz,,2025.1.1,59.845908779069575,2025-08-28 12h36.31.761158 -0300,
C:\Users\User\Documents\GitHub\real_time_bci\stims\right_arrow.png,RIGHT_MI_STIM,13,3,1,1,3,13,5,96.27701609977521,,,,,,96.26050949981436,,,,2,96.27709519979544,1223896.9002945,96.27701609977521,,98.26402159989811,98.30248069996014,98.30685229995288,4,98.30687899980694,1223898.9300812,99.51644579996355,99.51648979983293,99.53305259998888,5,99.53307859995402,1223900.1562804,103.2731238999404,103.27316529978998,103.27324889996089,6,96.27704029995948,1223896.9002425,493017,001,2025-08-28_12h36.23.636,Graz,,2025.1.1,59.845908779069575,2025-08-28 12h36.31.761158 -0300,
C:\Users\User\Documents\GitHub\real_time_bci\stims\left_arrow.png,LEFT_MI_STIM,14,4,1,1,4,14,1,103.28965459996834,,,,,,103.27349819988012,,,,2,103.2897376997862,1223903.9129374,103.28965459996834,,105.27700229990296,105.32299369992688,105.32881049998105,3,105.32885289983824,1223905.9520585,106.53040879988112,106.53044379991479,106.54559719981626,5,106.54561579995789,1223907.1688174,110.2860875998158,110.28612659987994,110.28618379984982,6,103.28968009981327,1223903.9128823,493017,001,2025-08-28_12h36.23.636,Graz,,2025.1.1,59.845908779069575,2025-08-28 12h36.31.761158 -0300,
C:\Users\User\Documents\GitHub\real_time_bci\stims\right_arrow.png,RIGHT_MI_STIM,15,5,1,1,5,15,9,110.3026385998819,,,,,,110.28630019980483,,,,2,110.30271299998276,1223910.9259123,110.3026385998819,,112.28956819977611,112.32596959988587,112.33060889993794,4,112.33062299992889,1223912.9538247,113.54179599997588,113.54183379979804,113.55874849995598,5,113.55879509984516,1223914.1820027,117.2987423997838,117.29877979983576,117.29883679980412,6,110.30265959980898,1223910.9258617,493017,001,2025-08-28_12h36.23.636,Graz,,2025.1.1,59.845908779069575,2025-08-28 12h36.31.761158 -0300,
C:\Users\User\Documents\GitHub\real_time_bci\stims\right_arrow.png,RIGHT_MI_STIM,16,6,1,1,6,16,8,117.31538209994324,,,,,,117.298946299823,,,,2,117.31545209977776,1223917.9386512,117.31538209994324,,119.30238499981351,119.33852059999481,119.34344089985825,4,119.34346119989641,1223919.9666627,120.55472599994391,120.55476589989848,120.57139409985393,5,120.57141609978862,1223921.1946179,124.31223079981282,124.31226619984955,124.31231789989397,6,117.31540279998444,1223917.9386052,493017,001,2025-08-28_12h36.23.636,Graz,,2025.1.1,59.845908779069575,2025-08-28 12h36.31.761158 -0300,
C:\Users\User\Documents\GitHub\real_time_bci\stims\left_arrow.png,LEFT_MI_STIM,17,7,1,1,7,17,0,124.32790789986029,,,,,,124.31242889980786,,,,2,124.32797789992765,1223924.9511775,124.32790789986029,,126.3151169999037,126.35205409978516,126.35660769999959,3,126.35662919981405,1223926.9798309,127.56749539985321,127.56753499992192,127.58410629979335,5,127.58412609994411,1223928.2073278,131.3251283999998,131.32516239979304,131.32521489984356,6,124.32792649976909,1223924.951128,493017,001,2025-08-28_12h36.23.636,Graz,,2025.1.1,59.845908779069575,2025-08-28 12h36.31.761158 -0300,
C:\Users\User\Documents\GitHub\real_time_bci\stims\right_arrow.png,RIGHT_MI_STIM,18,8,1,1,8,18,7,131.3408139999956,,,,,,131.32532119983807,,,,2,131.34088579984382,1223931.9640851,131.3408139999956,,133.32792529999278,133.3656298997812,133.36971899983473,4,133.36973159993067,1223933.9929325,134.58036989998072,134.58040709979832,134.5969630999025,5,134.5969878998585,1223935.2201894,138.33696679980494,138.33700399985537,138.33705479977652,6,131.34083309979178,1223931.9640345,493017,001,2025-08-28_12h36.23.636,Graz,,2025.1.1,59.845908779069575,2025-08-28 12h36.31.761158 -0300,
C:\Users\User\Documents\GitHub\real_time_bci\stims\left_arrow.png,LEFT_MI_STIM,19,9,1,1,9,19,2,138.35363569995388,,,,,,138.33716369979084,,,,2,138.35369939985685,1223938.9768982,138.35363569995388,,140.34070539986715,140.3775501998607,140.38202299992554,3,140.38204259984195,1223941.0052443,141.59311389992945,141.59315159986727,141.60974929993972,5,141.6097723999992,1223942.2329759,145.34979749983177,145.34983589989133,145.34989279997535,6,138.35365359997377,1223938.9768554,493017,001,2025-08-28_12h36.23.636,Graz,,2025.1.1,59.845908779069575,2025-08-28 12h36.31.761158 -0300,
C:\Users\User\Documents\GitHub\real_time_bci\stims\right_arrow.png,RIGHT_MI_STIM,20,0,2,2,0,20,5,145.36650019977242,,,,,,145.35001279995777,,,,2,145.3665713998489,1223945.9897712,145.36650019977242,,147.3534223998431,147.39153039990924,147.3964834997896,4,147.39649819978513,1223948.0197004,148.60792029998265,148.6079555999022,148.62238069996238,5,148.62240139977075,1223949.2456038,152.36283469991758,152.3628723998554,152.36293179984204,6,145.3665214998182,1223945.9897231,493017,001,2025-08-28_12h36.23.636,Graz,,2025.1.1,59.845908779069575,2025-08-28 12h36.31.761158 -0300,
C:\Users\User\Documents\GitHub\real_time_bci\stims\right_arrow.png,RIGHT_MI_STIM,21,1,2,2,1,21,7,152.37932159984484,,,,,,152.363040599972,,,,2,152.37940369988792,1223953.0026028,152.37932159984484,,154.3664808999747,154.40467649977654,154.40896609984338,4,154.4089867998846,1223955.0321882,155.61863589985296,155.6186763998121,155.6352488999255,5,155.63527509989217,1223956.258477,159.37558639980853,159.37563889985904,159.37570529989898,6,152.37934999982826,1223953.0025523,493017,001,2025-08-28_12h36.23.636,Graz,,2025.1.1,59.845908779069575,2025-08-28 12h36.31.761158 -0300,
C:\Users\User\Documents\GitHub\real_time_bci\stims\right_arrow.png,RIGHT_MI_STIM,22,2,2,2,2,22,6,159.3923017999623,,,,,,159.3758200998418,,,,2,159.39237179979682,1223960.015571,159.3923017999623,,161.37929799989797,161.4160610998515,161.42065489990637,4,161.42067519994453,1223962.0438785,162.63161499984562,162.63165399990976,162.64801429980434,5,162.64803679985926,1223963.2712385,166.38829079992138,166.38833149988204,166.38839149987325,6,159.39232409978285,1223960.015526,493017,001,2025-08-28_12h36.23.636,Graz,,2025.1.1,59.845908779069575,2025-08-28 12h36.31.761158 -0300,
C:\Users\User\Documents\GitHub\real_time_bci\stims\left_arrow.png,LEFT_MI_STIM,23,3,2,2,3,23,0,166.40514409984462,,,,,,166.38850699993782,,,,2,166.40525009995326,1223967.0284512,166.40514409984462,,168.39190889988095,168.42768659978174,168.43232269980945,3,168.43233569990844,1223969.0555364,169.64509039977565,169.64512799982913,169.66086079995148,5,169.66088099987246,1223970.2840826,173.40118439984508,173.4012220997829,173.4012779998593,6,166.40517479996197,1223967.0283797,493017,001,2025-08-28_12h36.23.636,Graz,,2025.1.1,59.845908779069575,2025-08-28 12h36.31.761158 -0300,
C:\Users\User\Documents\GitHub\real_time_bci\stims\left_arrow.png,LEFT_MI_STIM,24,4,2,2,4,24,2,173.41770539991558,,,,,,173.40138749987818,,,,2,173.41777499997988,1223974.0409738,173.41770539991558,,175.40559149999171,175.44168679998256,175.44591459981166,3,175.445927699795,1223976.0691285,176.6569228998851,176.65696209995076,176.6734898998402,5,176.6735113998875,1223977.2967135,180.41398419998586,180.41402189992368,180.41408349992707,6,173.4177254999522,1223974.040928,493017,001,2025-08-28_12h36.23.636,Graz,,2025.1.1,59.845908779069575,2025-08-28 12h36.31.761158 -0300,
C:\Users\User\Documents\GitHub\real_time_bci\stims\left_arrow.png,LEFT_MI_STIM,25,5,2,2,5,25,3,180.43059799983166,,,,,,180.41430519986898,,,,2,180.4306700997986,1223981.0538689,180.43059799983166,,182.4176454998087,182.4530312998686,182.45765919983387,3,182.45767809986137,1223983.0808802,183.67005459987558,183.6701088999398,183.6864078999497,5,183.68643069989048,1223984.309633,187.4266238999553,187.42666359990835,187.42672099987976,6,180.43062109989114,1223981.0538229,493017,001,2025-08-28_12h36.23.636,Graz,,2025.1.1,59.845908779069575,2025-08-28 12h36.31.761158 -0300,
C:\Users\User\Documents\GitHub\real_time_bci\stims\left_arrow.png,LEFT_MI_STIM,26,6,2,2,6,26,1,187.44330999976955,,,,,,187.4268375998363,,,,2,187.44337979983538,1223988.0665785,187.44330999976955,,189.43024619994685,189.46599329984747,189.47144629992545,3,189.4714688998647,1223990.0946709,190.68262859992683,190.68266859999858,190.69914339995012,5,190.69916039984673,1223991.3223624,194.43943509995006,194.43947329977527,194.43952959985472,6,187.4433303999249,1223988.0665318,493017,001,2025-08-28_12h36.23.636,Graz,,2025.1.1,59.845908779069575,2025-08-28 12h36.31.761158 -0300,
C:\Users\User\Documents\GitHub\real_time_bci\stims\left_arrow.png,LEFT_MI_STIM,27,7,2,2,7,27,4,194.4561980997678,,,,,,194.4396434999071,,,,2,194.45628109993413,1223995.0794811,194.4561980997678,,196.44414749997668,196.48077599983662,196.48489589989185,3,196.4849092999939,1223997.1081106,197.6954722998198,197.69551159976982,197.7119192997925,5,197.71194429998286,1223998.3351461,201.45248399977572,201.45254399999976,201.4526457998436,6,194.45622069993988,1223995.079423,493017,001,2025-08-28_12h36.23.636,Graz,,2025.1.1,59.845908779069575,2025-08-28 12h36.31.761158 -0300,
C:\Users\User\Documents\GitHub\real_time_bci\stims\right_arrow.png,RIGHT_MI_STIM,28,8,2,2,8,28,9,201.46904429979622,,,,,,201.45281779998913,,,,2,201.46916089998558,1224002.0923638,201.46904429979622,,203.45589579991065,203.49206279986538,203.49634049995802,4,203.49635389982723,1224004.1195548,204.70810849987902,204.70814639981836,204.7247386998497,5,204.724761699792,1224005.3479637,208.46583039988764,208.46586579992436,208.46591699984856,6,201.46907899994403,1224002.0922837,493017,001,2025-08-28_12h36.23.636,Graz,,2025.1.1,59.845908779069575,2025-08-28 12h36.31.761158 -0300,
C:\Users\User\Documents\GitHub\real_time_bci\stims\right_arrow.png,RIGHT_MI_STIM,29,9,2,2,9,29,8,208.4815372999292,,,,,,208.4660218998324,,,,2,208.48159499978647,1224009.1047936,208.4815372999292,,210.46864649979398,210.50679329992272,210.51091639976948,4,210.5109318997711,1224011.1341332,211.72125429986045,211.7212921997998,211.7382734999992,5,211.73829079978168,1224012.3614918,215.47805649996735,215.47809689980932,215.47815859992988,6,208.48155259992927,1224009.1047537,493017,001,2025-08-28_12h36.23.636,Graz,,2025.1.1,59.845908779069575,2025-08-28 12h36.31.761158 -0300,
C:\Users\User\Documents\GitHub\real_time_bci\stims\left_arrow.png,LEFT_MI_STIM,30,0,3,3,0,30,4,215.49538559978828,,,,,,215.47828549984843,,,,2,215.49549719993956,1224016.1186968,215.49538559978828,,217.48236809996888,217.51784079987556,217.52239629998803,3,217.52240789984353,1224018.145609,218.7339441999793,218.73399529978633,218.7508366999682,5,218.75088209984824,1224019.3740881,222.4904837999493,222.4905222998932,222.49057319993153,6,215.49543589982204,1224016.1186385,493017,001,2025-08-28_12h36.23.636,Graz,,2025.1.1,59.845908779069575,2025-08-28 12h36.31.761158 -0300,
C:\Users\User\Documents\GitHub\real_time_bci\stims\right_arrow.png,RIGHT_MI_STIM,31,1,3,3,1,31,5,222.50746749993414,,,,,,222.49069319991395,,,,2,222.50758929993026,1224023.1307908,222.50746749993414,,224.49423749977723,224.53169579990208,224.53653079993092,4,224.53655059984885,1224025.1597527,225.74737369990908,225.74740939983167,225.76306919986382,5,225.76308389985934,1224026.3862851,229.5033887999598,229.5034251997713,229.50347629981115,6,222.50751629984006,1224023.1307204,493017,001,2025-08-28_12h36.23.636,Graz,,2025.1.1,59.845908779069575,2025-08-28 12h36.31.761158 -0300,
C:\Users\User\Documents\GitHub\real_time_bci\stims\right_arrow.png,RIGHT_MI_STIM,32,2,3,3,2,32,6,229.51993959979154,,,,,,229.5035907998681,,,,2,229.5200080999639,1224030.1432068,229.51993959979154,,231.50708499993198,231.54582669981755,231.55063599999994,4,231.5506619999651,1224032.1738644,232.75928859994747,232.75932479999028,232.77676329994574,5,232.77677949983627,1224033.3999806,236.51631639990956,236.5163560998626,236.51644269982353,6,229.51995869982056,1224030.1431603,493017,001,2025-08-28_12h36.23.636,Graz,,2025.1.1,59.845908779069575,2025-08-28 12h36.31.761158 -0300,
C:\Users\User\Documents\GitHub\real_time_bci\stims\left_arrow.png,LEFT_MI_STIM,33,3,3,3,3,33,0,236.53279209998436,,,,,,236.5165915999096,,,,2,236.5328477998264,1224037.1560463,236.53279209998436,,238.51978379976936,238.55503109982237,238.55984069989063,3,238.55985279986635,1224039.1830539,239.77207949990407,239.7721189998556,239.78886819980107,5,239.7888983997982,1224040.4121029,243.52898779977113,243.52905319980346,243.5291066998616,6,236.5328061999753,1224037.1560076,493017,001,2025-08-28_12h36.23.636,Graz,,2025.1.1,59.845908779069575,2025-08-28 12h36.31.761158 -0300,
C:\Users\User\Documents\GitHub\real_time_bci\stims\left_arrow.png,LEFT_MI_STIM,34,4,3,3,4,34,1,243.54565369989723,,,,,,243.52921339985915,,,,2,243.545766599942,1224044.1689662,243.54565369989723,,245.5326004999224,245.5676056998782,245.5722236998845,3,245.57223649998195,1224046.1954376,246.784838499967,246.7848759999033,246.80164599977434,5,246.80166859994642,1224047.4248701,250.5416905998718,250.54172689979896,250.54177589993924,6,243.54571289988235,1224044.1689148,493017,001,2025-08-28_12h36.23.636,Graz,,2025.1.1,59.845908779069575,2025-08-28 12h36.31.761158 -0300,
C:\Users\User\Documents\GitHub\real_time_bci\stims\right_arrow.png,RIGHT_MI_STIM,35,5,3,3,5,35,8,250.55917629995383,,,,,,250.54188899998553,,,,2,250.5592428999953,1224051.1824417,250.55917629995383,,252.54540389985777,252.5817524997983,252.586314199958,4,252.5863283998333,1224053.2095298,253.79781689983793,253.7978559997864,253.8151562998537,5,253.8151743998751,1224054.4383756,257.5545464998577,257.5545834999066,257.55463819997385,6,250.55919569986872,1224051.1823966,493017,001,2025-08-28_12h36.23.636,Graz,,2025.1.1,59.845908779069575,2025-08-28 12h36.31.761158 -0300,
C:\Users\User\Documents\GitHub\real_time_bci\stims\right_arrow.png,RIGHT_MI_STIM,36,6,3,3,6,36,9,257.57195239979774,,,,,,257.5547461998649,,,,2,257.5720132999122,1224058.1952124,257.57195239979774,,259.5583582997788,259.59451569989324,259.5993294999935,4,259.5993454998825,1224060.2225466,260.8114329997916,260.8114683998283,260.82716289977543,5,260.8271834999323,1224061.4503851,264.5673315997701,264.5673706999514,264.56742289988324,6,257.5719684998039,1224058.1951697,493017,001,2025-08-28_12h36.23.636,Graz,,2025.1.1,59.845908779069575,2025-08-28 12h36.31.761158 -0300,
C:\Users\User\Documents\GitHub\real_time_bci\stims\left_arrow.png,LEFT_MI_STIM,37,7,3,3,7,37,3,264.58482999983244,,,,,,264.56753179989755,,,,2,264.584893199848,1224065.2080921,264.58482999983244,,266.5711775999516,266.60726619977504,266.6114004999399,3,266.6114138998091,1224067.2346152,267.824114699848,267.8241492998786,267.84075329988264,5,267.84077399992384,1224068.4639756,271.5801251998637,271.5801613999065,271.5802109998185,6,264.5848471999634,1224065.2080485,493017,001,2025-08-28_12h36.23.636,Graz,,2025.1.1,59.845908779069575,2025-08-28 12h36.31.761158 -0300,
C:\Users\User\Documents\GitHub\real_time_bci\stims\right_arrow.png,RIGHT_MI_STIM,38,8,3,3,8,38,7,271.59690629993565,,,,,,271.58032009983435,,,,2,271.5969723998569,1224072.2201712,271.59690629993565,,273.5838327999227,273.6201922998298,273.62493049982004,4,273.62494649994187,1224074.2481485,274.83613009983674,274.8361679997761,274.8527926998213,5,274.8528117998503,1224075.4760137,278.59288859996013,278.5929273997899,278.5929899998009,6,271.5969252998475,1224072.2201271,493017,001,2025-08-28_12h36.23.636,Graz,,2025.1.1,59.845908779069575,2025-08-28 12h36.31.761158 -0300,
C:\Users\User\Documents\GitHub\real_time_bci\stims\left_arrow.png,LEFT_MI_STIM,39,9,3,3,9,39,2,278.6094824997708,,,,,,278.5931004998274,,,,2,278.6095648999326,1224079.2327641,278.6094824997708,,280.5967415999621,280.63367329980247,280.63866109983064,3,280.6386793998536,1224081.2618815,281.84932749997824,281.84938729996793,281.8657791998703,5,281.8658190998249,1224082.4890247,285.60578159987926,285.60581829980947,285.6058718999848,6,278.6095094999764,1224079.232712,493017,001,2025-08-28_12h36.23.636,Graz,,2025.1.1,59.845908779069575,2025-08-28 12h36.31.761158 -0300,
,,,,,,,,,,,,,,,,,,,,,,,,,,,,,,,,,,,,,,,6,285.6223955999594,1224086.2455973,,,,,,,,,
