img,event_label,thisN,thisTrialN,thisRepN,trials.thisRepN,trials.thisTrialN,trials.thisN,trials.thisIndex,thisRow.t,notes,Start_LSL.started,Start_LSL.stopped,Baseline.started,Baseline.stopped,Attention.started,BASELINE_code,BASELINE_tGlob,BASELINE_tLSL,ATTENTION_code,ATTENTION_tGlob,ATTENTION_tLSL,attention_cross.started,attention_cross.stopped,Attention.stopped,Stim.started,motor_cue.started,STIM_code,STIM_tGlob,STIM_tLSL,Stim.stopped,Attempt.started,attempt.started,ATTEMPT_code,ATTEMPT_tGlob,ATTEMPT_tLSL,Attempt.stopped,Rest.started,image_2.started,REST_code,REST_tGlob,REST_tLSL,Rest.stopped,participant,session,date,expName,expVersion,psychopyVersion,frameRate,expStart,
,,,,,,,,,,,0.07851570006459951,0.07858490000944585,,,,,,,,,,,,,,,,,,,,,,,,,,,,,,,553969,001,2025-11-27_20h17.17.567,Graz,,2025.1.1,59.55372818151873,2025-11-27 20h17.40.753324 -0300,
,,,,,,,,,,,,,0.07861640001647174,0.07865280006080866,,,,,,,,,,,,,,,,,,,,,,,,,,,,,553969,001,2025-11-27_20h17.17.567,Graz,,2025.1.1,59.55372818151873,2025-11-27 20h17.40.753324 -0300,
C:\Users\User\Documents\GitHub\real_time_bci\stims\right_arrow.png,RIGHT_MI_STIM,0,0,0,0,0,0,9,0.1618282999843359,,,,,,0.08398820005822927,1,0.16184890002477914,663586.1700636,2,0.16189870005473495,663586.1701102,3.086473700008355,5.1243273000000045,5.073644699994475,5.118337200023234,5.1243273000000045,4,5.124346800032072,663591.1325609,6.342409200035036,6.342444599955343,6.358964700018987,5,6.358982400037348,663592.3671965,10.082660799962468,10.082695799996145,10.099681699997745,6,10.099702500039712,663596.1079167,12.086237699957564,553969,001,2025-11-27_20h17.17.567,Graz,,2025.1.1,59.55372818151873,2025-11-27 20h17.40.753324 -0300,
C:\Users\User\Documents\GitHub\real_time_bci\stims\left_arrow.png,LEFT_MI_STIM,1,1,0,0,1,1,0,12.102751399972476,,,,,,12.086366200004704,,,,2,12.10277480003424,663598.1109885,12.102751399972476,,14.089800499961711,14.127186700003222,14.140835299971513,3,14.14086100005079,663600.1490762,15.342353999963962,15.34239120001439,15.359133300022222,5,15.359151700045913,663601.3673654,19.082890399964526,19.082930500037037,19.099032700061798,6,19.099051999975927,663605.1072658,21.087148600025102,553969,001,2025-11-27_20h17.17.567,Graz,,2025.1.1,59.55372818151873,2025-11-27 20h17.40.753324 -0300,
C:\Users\User\Documents\GitHub\real_time_bci\stims\right_arrow.png,RIGHT_MI_STIM,2,2,0,0,2,2,7,21.102475499967113,,,,,,21.087279899977148,,,,2,21.102499300031923,663607.1107127,21.102475499967113,,23.089599500061013,23.127963099977933,23.14059119997546,4,23.140628700028174,663609.1488465,24.34241080004722,24.342453800025396,24.35850610001944,5,24.35852520004846,663610.3667389,28.08231359999627,28.08234900003299,28.099076900049113,6,28.099097599973902,663614.1073115,30.0862591000041,553969,001,2025-11-27_20h17.17.567,Graz,,2025.1.1,59.55372818151873,2025-11-27 20h17.40.753324 -0300,
C:\Users\User\Documents\GitHub\real_time_bci\stims\right_arrow.png,RIGHT_MI_STIM,3,3,0,0,3,3,5,30.102874299976975,,,,,,30.086400700034574,,,,2,30.10290299996268,663616.1111175,30.102874299976975,,32.089735400048085,32.12640680000186,32.140245600021444,4,32.14026690006722,663618.148481,33.34194379998371,33.34198130003642,33.35867920005694,5,33.35870109999087,663619.3669151,37.08194539998658,37.08198050002102,37.09834609995596,6,37.09836429997813,663623.1065779,39.08728019997943,553969,001,2025-11-27_20h17.17.567,Graz,,2025.1.1,59.55372818151873,2025-11-27 20h17.40.753324 -0300,
C:\Users\User\Documents\GitHub\real_time_bci\stims\left_arrow.png,LEFT_MI_STIM,4,4,0,0,4,4,2,39.10222490003798,,,,,,39.08750040002633,,,,2,39.102266900008544,663625.1104812,39.10222490003798,,41.089898800011724,41.12781169998925,41.140076800016686,3,41.140094400034286,663627.1483083,42.34268470003735,42.34274890006054,42.35848110006191,5,42.35850319999736,663628.3667171,46.08626849995926,46.08637929998804,46.0986353000626,6,46.0986556999851,663632.1068695,48.08568620006554,553969,001,2025-11-27_20h17.17.567,Graz,,2025.1.1,59.55372818151873,2025-11-27 20h17.40.753324 -0300,
C:\Users\User\Documents\GitHub\real_time_bci\stims\right_arrow.png,RIGHT_MI_STIM,5,5,0,0,5,5,8,48.102372399996966,,,,,,48.085805600043386,,,,2,48.102401299984194,663634.1106161,48.102372399996966,,50.0893082000548,50.13045619998593,50.13947399996687,4,50.13949189998675,663636.1477056,51.34172050002962,51.34176069998648,51.35844059998635,5,51.35846210003365,663637.3666767,55.08245410001837,55.08251640002709,55.09812640002929,6,55.098146700067446,663641.1063604,57.08505019999575,553969,001,2025-11-27_20h17.17.567,Graz,,2025.1.1,59.55372818151873,2025-11-27 20h17.40.753324 -0300,
C:\Users\User\Documents\GitHub\real_time_bci\stims\left_arrow.png,LEFT_MI_STIM,6,6,0,0,6,6,3,57.10162410000339,,,,,,57.08517540001776,,,,2,57.10166200005915,663643.1098761,57.10162410000339,,59.089075200026855,59.12472560000606,59.13954760006163,3,59.13956819998566,663645.147782,60.340830000001006,60.340867300052196,60.358084300067276,5,60.35810329997912,663646.3663168,64.08137290005106,64.08140739996452,64.09805240004789,6,64.09807159996126,663650.1062851,66.08532670000568,553969,001,2025-11-27_20h17.17.567,Graz,,2025.1.1,59.55372818151873,2025-11-27 20h17.40.753324 -0300,
C:\Users\User\Documents\GitHub\real_time_bci\stims\right_arrow.png,RIGHT_MI_STIM,7,7,0,0,7,7,6,66.10184959997423,,,,,,66.08546930004377,,,,2,66.10187829995994,663652.1100928,66.10184959997423,,68.09130760002881,68.14343689999077,68.15712119999807,4,68.15715680003632,663654.165375,69.34136199997738,69.34140470006969,69.35794290003832,5,69.35796619998291,663655.3661808,73.08086710004136,73.08090669999365,73.09729080006946,6,73.09731169999577,663659.1055255,75.08618230000138,553969,001,2025-11-27_20h17.17.567,Graz,,2025.1.1,59.55372818151873,2025-11-27 20h17.40.753324 -0300,
C:\Users\User\Documents\GitHub\real_time_bci\stims\left_arrow.png,LEFT_MI_STIM,8,8,0,0,8,8,4,75.10117849998642,,,,,,75.08640589995775,,,,2,75.10120489995461,663661.1094189,75.10117849998642,,77.08813020004891,77.12534250004683,77.13931130000856,3,77.13933100004215,663663.1475448,78.3413868000498,78.34145629999693,78.3571440000087,5,78.35717860003933,663664.3653926,82.08049850002863,82.08053649996873,82.09761219995562,6,82.09763099998236,663668.1058445,84.08443839999381,553969,001,2025-11-27_20h17.17.567,Graz,,2025.1.1,59.55372818151873,2025-11-27 20h17.40.753324 -0300,
C:\Users\User\Documents\GitHub\real_time_bci\stims\left_arrow.png,LEFT_MI_STIM,9,9,0,0,9,9,1,84.10077130002901,,,,,,84.08456890005618,,,,2,84.10079449997284,663670.1090088,84.10077130002901,,86.08816990000196,86.12444010004401,86.13873340003192,3,86.1387534000678,663672.1469671,87.34057969995774,87.34061720001046,87.35723750002217,5,87.35725620004814,663673.3654695,91.08090429997537,91.0809441000456,91.09767399996053,6,91.09769770002458,663677.1059124,93.08434539998416,553969,001,2025-11-27_20h17.17.567,Graz,,2025.1.1,59.55372818151873,2025-11-27 20h17.40.753324 -0300,
C:\Users\User\Documents\GitHub\real_time_bci\stims\right_arrow.png,RIGHT_MI_STIM,10,0,1,1,0,10,7,93.10076729999855,,,,,,93.08447860006709,,,,2,93.10079499997664,663679.109009,93.10076729999855,,95.08802220004145,95.12540510005783,95.13869100005832,4,95.13871129998006,663681.146925,96.34046850004233,96.34051380003802,96.35798990004696,5,96.35802230006084,663682.3662395,100.08046740002465,100.08050230005756,100.09699500002898,6,100.09701560006943,663686.1052297,102.08877559995744,553969,001,2025-11-27_20h17.17.567,Graz,,2025.1.1,59.55372818151873,2025-11-27 20h17.40.753324 -0300,
C:\Users\User\Documents\GitHub\real_time_bci\stims\left_arrow.png,LEFT_MI_STIM,11,1,1,1,1,11,3,102.10072920005769,,,,,,102.08915440004785,,,,2,102.10075610002968,663688.10897,102.10072920005769,,104.08787409996148,104.12386639998294,104.13820729998406,3,104.13822700001765,663690.1464404,105.34036150004249,105.34040139999706,105.35684999998193,5,105.35687220003456,663691.3650865,109.08022130001336,109.08025860006455,109.0968326999573,6,109.09685179998633,663695.1050653,111.08415160002187,553969,001,2025-11-27_20h17.17.567,Graz,,2025.1.1,59.55372818151873,2025-11-27 20h17.40.753324 -0300,
C:\Users\User\Documents\GitHub\real_time_bci\stims\right_arrow.png,RIGHT_MI_STIM,12,2,1,1,2,12,5,111.1007540000137,,,,,,111.08428039995488,,,,2,111.10078550002072,663697.109001,111.1007540000137,,113.08791810006369,113.13038180000149,113.13793039997108,4,113.13794929999858,663699.1461635,114.33984190004412,114.33987979998346,114.35636480001267,5,114.3563870000653,663700.3646015,118.08011059998535,118.0801511000609,118.09640200005379,6,118.09643719997257,663704.1046511,120.08369920006953,553969,001,2025-11-27_20h17.17.567,Graz,,2025.1.1,59.55372818151873,2025-11-27 20h17.40.753324 -0300,
C:\Users\User\Documents\GitHub\real_time_bci\stims\left_arrow.png,LEFT_MI_STIM,13,3,1,1,3,13,4,120.10012620000634,,,,,,120.08384239999577,,,,2,120.10016859997995,663706.1083828,120.10012620000634,,122.08704110002145,122.12421919999178,122.13808760000393,3,122.13810860004742,663708.1463227,123.33973620005418,123.33977399999276,123.35592770006042,5,123.35594769997988,663709.3641615,127.07964300003368,127.0796784000704,127.09652699995786,6,127.09654669999145,663713.1047601,129.08344119996764,553969,001,2025-11-27_20h17.17.567,Graz,,2025.1.1,59.55372818151873,2025-11-27 20h17.40.753324 -0300,
C:\Users\User\Documents\GitHub\real_time_bci\stims\right_arrow.png,RIGHT_MI_STIM,14,4,1,1,4,14,8,129.09985850006342,,,,,,129.08356150006875,,,,2,129.0998847000301,663715.1080985,129.09985850006342,,131.08740249997936,131.132163100061,131.13729039998725,4,131.13730609999038,663717.1455198,132.33900400006678,132.33904540003277,132.3554690000601,5,132.3554901999887,663718.3637042,136.07975050003733,136.0797974000452,136.09574080002494,6,136.095776900067,663722.1039915,138.08290459995624,553969,001,2025-11-27_20h17.17.567,Graz,,2025.1.1,59.55372818151873,2025-11-27 20h17.40.753324 -0300,
C:\Users\User\Documents\GitHub\real_time_bci\stims\right_arrow.png,RIGHT_MI_STIM,15,5,1,1,5,15,9,138.09923910000362,,,,,,138.08306960004847,,,,2,138.09927989996504,663724.1074941,138.09923910000362,,140.08642000006512,140.12531260005198,140.1372675000457,4,140.13728789996821,663726.1455029,141.33884240000043,141.3388795000501,141.35515279998071,5,141.3551725000143,663727.3633861,145.07923040003516,145.07926639996003,145.09615710005164,6,145.09617729997262,663731.1043911,147.0833783999551,553969,001,2025-11-27_20h17.17.567,Graz,,2025.1.1,59.55372818151873,2025-11-27 20h17.40.753324 -0300,
C:\Users\User\Documents\GitHub\real_time_bci\stims\right_arrow.png,RIGHT_MI_STIM,16,6,1,1,6,16,6,147.09952409996185,,,,,,147.08353199996054,,,,2,147.09955280006398,663733.1077673,147.09952409996185,,149.08679460000712,149.1282086999854,149.13694190001115,4,149.13696160004474,663735.1451757,150.33890520001296,150.33894689998124,150.35561820003204,5,150.35564009996597,663736.3638545,154.07910460000858,154.07914529996924,154.09523960005026,6,154.09527549997438,663740.1034896,156.08258839999326,553969,001,2025-11-27_20h17.17.567,Graz,,2025.1.1,59.55372818151873,2025-11-27 20h17.40.753324 -0300,
C:\Users\User\Documents\GitHub\real_time_bci\stims\left_arrow.png,LEFT_MI_STIM,17,7,1,1,7,17,0,156.09888239996508,,,,,,156.0827148000244,,,,2,156.09890780004207,663742.1071222,156.09888239996508,,158.08588839997537,158.12207350006793,158.13693200005218,3,158.1369520999724,663744.1451662,159.33869360003155,159.33874140004627,159.35478659998626,5,159.35480490000919,663745.3630187,163.07873569999356,163.07877060002647,163.0953611000441,6,163.095380499959,663749.1035935,165.08217549999245,553969,001,2025-11-27_20h17.17.567,Graz,,2025.1.1,59.55372818151873,2025-11-27 20h17.40.753324 -0300,
C:\Users\User\Documents\GitHub\real_time_bci\stims\left_arrow.png,LEFT_MI_STIM,18,8,1,1,8,18,2,165.09914189996198,,,,,,165.08239590004086,,,,2,165.09916890005115,663751.1073834,165.09914189996198,,167.08900629996788,167.14674850006122,167.153044900042,3,167.1530628000619,663753.1612767,168.33840230002534,168.3384386000689,168.35521409998182,5,168.35523790004663,663754.3634526,172.07874530006666,172.0787863000296,172.09525959996972,6,172.0952827000292,663758.1034974,174.08226030005608,553969,001,2025-11-27_20h17.17.567,Graz,,2025.1.1,59.55372818151873,2025-11-27 20h17.40.753324 -0300,
C:\Users\User\Documents\GitHub\real_time_bci\stims\left_arrow.png,LEFT_MI_STIM,19,9,1,1,9,19,1,174.09893960005138,,,,,,174.08241170004476,,,,2,174.0989680000348,663760.1071828,174.09893960005138,,176.08581990003586,176.12295049999375,176.13641479995567,3,176.13643459999003,663762.1446486,177.33830910001416,177.33835460001137,177.3578295999905,5,177.3578862999566,663763.3661116,181.0945166000165,181.09455429995432,181.11113139998633,6,181.11114930000622,663767.119363,183.0815508000087,553969,001,2025-11-27_20h17.17.567,Graz,,2025.1.1,59.55372818151873,2025-11-27 20h17.40.753324 -0300,
C:\Users\User\Documents\GitHub\real_time_bci\stims\left_arrow.png,LEFT_MI_STIM,20,0,2,2,0,20,0,183.09836529998574,,,,,,183.08168459997978,,,,2,183.0983916000696,663769.1066051,183.09836529998574,,185.08552259998396,185.12156530003995,185.13598829996772,3,185.1360083000036,663771.1442218,186.33734840003308,186.33738639997318,186.35457009996753,5,186.3545895999996,663772.3628033,190.09659139998257,190.09665459999815,190.11130700004287,6,190.11132689996157,663776.1195404,192.0814652000554,553969,001,2025-11-27_20h17.17.567,Graz,,2025.1.1,59.55372818151873,2025-11-27 20h17.40.753324 -0300,
C:\Users\User\Documents\GitHub\real_time_bci\stims\left_arrow.png,LEFT_MI_STIM,21,1,2,2,1,21,1,192.09791590005625,,,,,,192.08159129996784,,,,2,192.0979440000374,663778.1061583,192.09791590005625,,194.08576559997164,194.12666209996678,194.13625760003924,3,194.1362801999785,663780.1444945,195.33767549996264,195.33771630004048,195.35813239996787,5,195.35818390001077,663781.3664063,199.09458519995678,199.09461989998817,199.11115700006485,6,199.1111769999843,663785.1193906,201.0813984000124,553969,001,2025-11-27_20h17.17.567,Graz,,2025.1.1,59.55372818151873,2025-11-27 20h17.40.753324 -0300,
C:\Users\User\Documents\GitHub\real_time_bci\stims\left_arrow.png,LEFT_MI_STIM,22,2,2,2,2,22,2,201.09827830002178,,,,,,201.08151940000243,,,,2,201.0983058999991,663787.10652,201.09827830002178,,203.08504140004516,203.1213372000493,203.135565900011,3,203.13558590004686,663789.1437998,204.33738759998232,204.33742410002742,204.3536755000241,5,204.35369540005922,663790.3619088,208.09432320005726,208.09436360001564,208.11038189998362,6,208.11040230002254,663794.1186161,210.08137090003584,553969,001,2025-11-27_20h17.17.567,Graz,,2025.1.1,59.55372818151873,2025-11-27 20h17.40.753324 -0300,
C:\Users\User\Documents\GitHub\real_time_bci\stims\right_arrow.png,RIGHT_MI_STIM,23,3,2,2,3,23,7,210.09797780006193,,,,,,210.08152270002756,,,,2,210.09800740005448,663796.1062221,210.09797780006193,,212.08497079997323,212.12494470004458,212.13539660000242,4,212.13541600003373,663798.1436302,213.33732100005727,213.3373639000347,213.35390290000942,5,213.35392480005976,663799.3621392,217.09366450004745,217.09370019997004,217.11051759996917,6,217.11053700000048,663803.1187507,219.08051860006526,553969,001,2025-11-27_20h17.17.567,Graz,,2025.1.1,59.55372818151873,2025-11-27 20h17.40.753324 -0300,
C:\Users\User\Documents\GitHub\real_time_bci\stims\right_arrow.png,RIGHT_MI_STIM,24,4,2,2,4,24,9,219.09714540001005,,,,,,219.08066320000216,,,,2,219.09717299998738,663805.105387,219.09714540001005,,221.0844081999967,221.12204419996124,221.13509400002658,4,221.1351139000617,663807.143328,222.33665800001472,222.33669470006134,222.35368419997394,5,222.35370360000525,663808.3619172,226.09392030001618,226.09396299999207,226.1107253000373,6,226.11074999999255,663812.1189655,228.08016809995752,553969,001,2025-11-27_20h17.17.567,Graz,,2025.1.1,59.55372818151873,2025-11-27 20h17.40.753324 -0300,
C:\Users\User\Documents\GitHub\real_time_bci\stims\right_arrow.png,RIGHT_MI_STIM,25,5,2,2,5,25,5,228.09682980005164,,,,,,228.08029589999933,,,,2,228.09685450000688,663814.1050685,228.09682980005164,,230.08442279999144,230.12152909999713,230.13494320004247,4,230.13496319996193,663816.1431769,231.33703950000927,231.33708119997755,231.3572145999642,5,231.357271600049,663817.3654972,235.09315420000348,235.09319359995425,235.10960750002414,6,235.10962550004479,663821.1178394,237.07982670003548,553969,001,2025-11-27_20h17.17.567,Graz,,2025.1.1,59.55372818151873,2025-11-27 20h17.40.753324 -0300,
C:\Users\User\Documents\GitHub\real_time_bci\stims\right_arrow.png,RIGHT_MI_STIM,26,6,2,2,6,26,6,237.09671149996575,,,,,,237.07995100005064,,,,2,237.09673870005645,663823.1049527,237.09671149996575,,239.08559090003837,239.13000909995753,239.13424459996168,4,239.13425860006828,663825.1424718,240.33592270000372,240.33597440004814,240.35280770005193,5,240.35282799997367,663826.3610418,244.09347840002738,244.09351420006715,244.1093292000005,6,244.10935010004323,663830.1175643,246.08218859997578,553969,001,2025-11-27_20h17.17.567,Graz,,2025.1.1,59.55372818151873,2025-11-27 20h17.40.753324 -0300,
C:\Users\User\Documents\GitHub\real_time_bci\stims\right_arrow.png,RIGHT_MI_STIM,27,7,2,2,7,27,8,246.09822409995832,,,,,,246.0823151000077,,,,2,246.09825250005815,663832.1064675,246.09822409995832,,248.08276460005436,248.12144220003393,248.13462550006807,4,248.13464519998524,663834.1428592,249.33575129997917,249.33578860003036,249.35471910005435,5,249.35477730003186,663835.3630027,253.0924640999874,253.0925009000348,253.10901180002838,6,253.10903329995926,663839.1172472,255.07993590005208,553969,001,2025-11-27_20h17.17.567,Graz,,2025.1.1,59.55372818151873,2025-11-27 20h17.40.753324 -0300,
C:\Users\User\Documents\GitHub\real_time_bci\stims\left_arrow.png,LEFT_MI_STIM,28,8,2,2,8,28,3,255.09636880003382,,,,,,255.08005940006115,,,,2,255.0963955000043,663841.1046094,255.09636880003382,,257.0866017000517,257.19257429998834,257.2067964000162,3,257.2068602000363,663843.2150807,258.33723229996394,258.3372731000418,258.35361870005727,5,258.3536407999927,663844.3618548,262.09449970000423,262.09455919999164,262.1097631000448,6,262.1097928000381,663848.1180089,264.07946040004026,553969,001,2025-11-27_20h17.17.567,Graz,,2025.1.1,59.55372818151873,2025-11-27 20h17.40.753324 -0300,
C:\Users\User\Documents\GitHub\real_time_bci\stims\left_arrow.png,LEFT_MI_STIM,29,9,2,2,9,29,4,264.09622720000334,,,,,,264.07958689995576,,,,2,264.09625509998295,663850.1044695,264.09622720000334,,266.0830730999587,266.12061600002926,266.13623090006877,3,266.13625270000193,663852.1444664,267.3357908000471,267.3358340000268,267.35189950000495,5,267.35192120005377,663853.3601355,271.0933140000561,271.09335089998785,271.11036579997744,6,271.11038680002093,663857.1186003,273.0810175000224,553969,001,2025-11-27_20h17.17.567,Graz,,2025.1.1,59.55372818151873,2025-11-27 20h17.40.753324 -0300,
C:\Users\User\Documents\GitHub\real_time_bci\stims\right_arrow.png,RIGHT_MI_STIM,30,0,3,3,0,30,9,273.09867189999204,,,,,,273.0811449000612,,,,2,273.09870009997394,663859.1069144,273.09867189999204,,275.08260259998497,275.1220946999965,275.1339007000206,4,275.13392409996595,663861.1421391,276.3348121000454,276.3348532000091,276.3517722999677,5,276.3517935000127,663862.3600072,280.09203349996824,280.0920691000065,280.1087972000241,6,280.10881810006686,663866.1170319,282.0789856000338,553969,001,2025-11-27_20h17.17.567,Graz,,2025.1.1,59.55372818151873,2025-11-27 20h17.40.753324 -0300,
C:\Users\User\Documents\GitHub\real_time_bci\stims\right_arrow.png,RIGHT_MI_STIM,31,1,3,3,1,31,6,282.0952895999653,,,,,,282.07912670006044,,,,2,282.09531800006516,663868.1035323,282.0952895999653,,284.0828344000038,284.12133550003637,284.13406299997587,4,284.1340855000308,663870.1422997,285.34025320003275,285.34029169997666,285.35360939998645,5,285.35366709996015,663871.361891,289.0927909000311,289.09285729995463,289.10963309998624,6,289.1096712000435,663875.1178896,291.0813135000644,553969,001,2025-11-27_20h17.17.567,Graz,,2025.1.1,59.55372818151873,2025-11-27 20h17.40.753324 -0300,
C:\Users\User\Documents\GitHub\real_time_bci\stims\right_arrow.png,RIGHT_MI_STIM,32,2,3,3,2,32,8,291.0972453999566,,,,,,291.0817063000286,,,,2,291.0972749000648,663877.105489,291.0972453999566,,293.0856458999915,293.1259469999932,293.1362381000072,4,293.13626090006437,663879.1444747,294.33505510003306,294.33510609995574,294.3517827000469,5,294.35181799996644,663880.3600355,298.09090209996793,298.0909394000191,298.11003520002123,6,298.1100568000693,663884.1182714,300.09526420000475,553969,001,2025-11-27_20h17.17.567,Graz,,2025.1.1,59.55372818151873,2025-11-27 20h17.40.753324 -0300,
C:\Users\User\Documents\GitHub\real_time_bci\stims\left_arrow.png,LEFT_MI_STIM,33,3,3,3,3,33,4,300.111501700012,,,,,,300.09539000003133,,,,2,300.11152929998934,663886.1197437,300.111501700012,,302.081734700012,302.11855450004805,302.13344390003476,3,302.1334654999664,663888.1416793,303.3351372999605,303.33517490001395,303.3523877999978,5,303.35240970004816,663889.3606235,307.0911397000309,307.0911987000145,307.10767239995766,6,307.10769500001334,663893.1159101,309.07880819996353,553969,001,2025-11-27_20h17.17.567,Graz,,2025.1.1,59.55372818151873,2025-11-27 20h17.40.753324 -0300,
C:\Users\User\Documents\GitHub\real_time_bci\stims\left_arrow.png,LEFT_MI_STIM,34,4,3,3,4,34,1,309.09492810000665,,,,,,309.0789469999727,,,,2,309.094955699984,663895.1031697,309.09492810000665,,311.0815452999668,311.11917700001504,311.1331438999623,3,311.1331885000691,663897.1414027,312.33349009999074,312.33353050006554,312.35077120002825,5,312.3507921999553,663898.359006,316.09100610006135,316.09105339995585,316.1076006999938,6,316.10762200003956,663902.1158359,318.0792880000081,553969,001,2025-11-27_20h17.17.567,Graz,,2025.1.1,59.55372818151873,2025-11-27 20h17.40.753324 -0300,
C:\Users\User\Documents\GitHub\real_time_bci\stims\left_arrow.png,LEFT_MI_STIM,35,5,3,3,5,35,2,318.0950545000378,,,,,,318.07941490004305,,,,2,318.09508260001894,663904.1032969,318.0950545000378,,320.0813365000067,320.1178602,320.1341595000122,3,320.1341819000663,663906.1423957,321.3339796999935,321.3340196000645,321.35057250002865,5,321.35059389995877,663907.3588075,325.09280610003043,325.09284980001394,325.10797799995635,6,325.1080017000204,663911.1162156,327.0790666000685,553969,001,2025-11-27_20h17.17.567,Graz,,2025.1.1,59.55372818151873,2025-11-27 20h17.40.753324 -0300,
C:\Users\User\Documents\GitHub\real_time_bci\stims\left_arrow.png,LEFT_MI_STIM,36,6,3,3,6,36,0,327.0950537000317,,,,,,327.0792024000548,,,,2,327.09508080000523,663913.103295,327.0950537000317,,329.08639039995614,329.1224854000611,329.1332193999551,3,329.133243600023,663915.1414578,330.33507579995785,330.3351145000197,330.35231480002403,5,330.3523359000683,663916.3605497,334.0907899000449,334.0908331000246,334.10744170006365,6,334.1074674000265,663920.1156822,336.09639950003475,553969,001,2025-11-27_20h17.17.567,Graz,,2025.1.1,59.55372818151873,2025-11-27 20h17.40.753324 -0300,
C:\Users\User\Documents\GitHub\real_time_bci\stims\right_arrow.png,RIGHT_MI_STIM,37,7,3,3,7,37,5,336.11195180006325,,,,,,336.0967986000469,,,,2,336.11199860007036,663922.1202168,336.11195180006325,,338.0813142999541,338.1205480999779,338.1335946000181,4,338.1336173999589,663924.141831,339.3334407999646,339.33347770001274,339.3498221000191,5,339.3498435000656,663925.3580578,343.0904818000272,343.0905207999749,343.10871719999705,6,343.1087378000375,663929.1169518,345.0935570000438,553969,001,2025-11-27_20h17.17.567,Graz,,2025.1.1,59.55372818151873,2025-11-27 20h17.40.753324 -0300,
C:\Users\User\Documents\GitHub\real_time_bci\stims\left_arrow.png,LEFT_MI_STIM,38,8,3,3,8,38,3,345.11202680005226,,,,,,345.0936865999829,,,,2,345.1120551000349,663931.1202697,345.11202680005226,,347.08065080002416,347.1174577999627,347.13212750002276,3,347.13214919995517,663933.140363,348.33345509995706,348.3334980000509,348.3495198000455,5,348.34954119997565,663934.3577549,352.09261379996315,352.09265210002195,352.11206379998475,6,352.1120860000374,663938.1203004,354.0954585999716,553969,001,2025-11-27_20h17.17.567,Graz,,2025.1.1,59.55372818151873,2025-11-27 20h17.40.753324 -0300,
C:\Users\User\Documents\GitHub\real_time_bci\stims\right_arrow.png,RIGHT_MI_STIM,39,9,3,3,9,39,7,354.11038910003845,,,,,,354.09561269998085,,,,2,354.1104236000683,663940.1186382,354.11038910003845,,356.08065729995724,356.1199124000268,356.13162820006255,4,356.1316552000353,663942.139869,357.33301950001623,357.3330575999571,357.3499905000208,5,357.3500107000582,663943.3582245,361.08991610002704,361.08995489997324,361.1104742999887,6,361.110500000068,663947.1187146,363.09494410001207,553969,001,2025-11-27_20h17.17.567,Graz,,2025.1.1,59.55372818151873,2025-11-27 20h17.40.753324 -0300,
