img,event_label,thisN,thisTrialN,thisRepN,trials.thisRepN,trials.thisTrialN,trials.thisN,trials.thisIndex,thisRow.t,notes,Start_LSL.started,Start_LSL.stopped,Baseline.started,Baseline.stopped,Attention.started,BASELINE_code,BASELINE_tGlob,BASELINE_tLSL,ATTENTION_code,ATTENTION_tGlob,ATTENTION_tLSL,attention_cross.started,attention_cross.stopped,Attention.stopped,Stim.started,motor_cue.started,STIM_code,STIM_tGlob,STIM_tLSL,Stim.stopped,Attempt.started,attempt.started,ATTEMPT_code,ATTEMPT_tGlob,ATTEMPT_tLSL,attempt.stopped,Attempt.stopped,Rest.started,Rest.stopped,REST_code,REST_tGlob,REST_tLSL,participant,session,date,expName,expVersion,psychopyVersion,frameRate,expStart,
,,,,,,,,,,,0.08943939999153372,0.08951859999797307,,,,,,,,,,,,,,,,,,,,,,,,,,,,,,,694220,001,2025-09-01_15h42.13.843,Graz,,2025.1.1,38.2316047680679,2025-09-01 15h42.21.331094 -0300,
,,,,,,,,,,,,,0.08955419999256264,0.08959869999671355,,,,,,,,,,,,,,,,,,,,,,,,,,,,,694220,001,2025-09-01_15h42.13.843,Graz,,2025.1.1,38.2316047680679,2025-09-01 15h42.21.331094 -0300,
C:\Users\User\Documents\GitHub\real_time_bci\stims\left_arrow.png,LEFT_MI_STIM,0,0,0,0,0,0,4,0.11213039999711327,,,,,,0.09426430000166874,1,0.11214739999559242,74836.9841845,2,0.11219590000109747,74836.9842274,5.092402199996286,7.191346599996905,7.081781600005343,7.173391699994681,7.191346599996905,3,7.191368799991324,74844.0634037,8.346057899994776,8.346094199994695,8.34848200000124,5,8.348501600004965,74845.2205379,12.112296999999671,12.084544299999834,12.084572199994,12.084605299998657,,,,694220,001,2025-09-01_15h42.13.843,Graz,,2025.1.1,38.2316047680679,2025-09-01 15h42.21.331094 -0300,
C:\Users\User\Documents\GitHub\real_time_bci\stims\right_arrow.png,RIGHT_MI_STIM,1,1,0,0,1,1,5,12.112296999999671,,,,,,12.084708099995623,,,,2,12.112372999996296,74848.9844045,12.112296999999671,,14.096478899999056,14.133807599995635,14.157355599993025,4,14.157371599998442,74851.0294061,15.34493740000471,15.344974199993885,15.349287899996853,5,15.349299800000153,74852.2213334,,19.088586900004884,19.088623499992536,19.08868060000532,6,12.112326899994514,74848.9843618,694220,001,2025-09-01_15h42.13.843,Graz,,2025.1.1,38.2316047680679,2025-09-01 15h42.21.331094 -0300,
C:\Users\User\Documents\GitHub\real_time_bci\stims\left_arrow.png,LEFT_MI_STIM,2,2,0,0,2,2,2,19.091310999996495,,,,,,19.088789599991287,,,,2,19.091417599993292,74855.9634511,19.091310999996495,,21.088832599998568,21.126544300001115,21.13906709999719,3,21.139090399999986,74858.0111254,22.341450199994142,22.341492099993047,22.367913599999156,5,22.36793540000508,74859.2399706,,26.090953199993237,26.091069400004926,26.091244399998686,6,19.091339999999036,74855.9633797,694220,001,2025-09-01_15h42.13.843,Graz,,2025.1.1,38.2316047680679,2025-09-01 15h42.21.331094 -0300,
C:\Users\User\Documents\GitHub\real_time_bci\stims\left_arrow.png,LEFT_MI_STIM,3,3,0,0,3,3,1,26.117662499993457,,,,,,26.09159609999915,,,,2,26.11773589999939,74862.9897673,26.117662499993457,,28.09675729999435,28.133768200001214,28.15022699999099,3,28.1502513000014,74865.0222862,29.345657400001073,29.34569360000023,29.373095599992666,5,29.37311889999546,74866.2451537,,33.09315040000365,33.09319240000332,33.09325039999385,6,26.117684500000905,74862.9897198,694220,001,2025-09-01_15h42.13.843,Graz,,2025.1.1,38.2316047680679,2025-09-01 15h42.21.331094 -0300,
C:\Users\User\Documents\GitHub\real_time_bci\stims\right_arrow.png,RIGHT_MI_STIM,4,4,0,0,4,4,9,33.096609999993234,,,,,,33.093365699998685,,,,2,33.09666579999612,74869.9686975,33.096609999993234,35.13308739999775,35.08055250000325,35.11842119999346,35.13308739999775,4,35.13310819999606,74872.005143,36.35688160000427,36.35693409999658,36.38497329999518,5,36.384995100001106,74873.25703,,40.108975099996314,40.10901190000004,40.109067700002925,6,33.09662389999721,74869.9686576,694220,001,2025-09-01_15h42.13.843,Graz,,2025.1.1,38.2316047680679,2025-09-01 15h42.21.331094 -0300,
C:\Users\User\Documents\GitHub\real_time_bci\stims\right_arrow.png,RIGHT_MI_STIM,5,5,0,0,5,5,7,40.111711000005016,,,,,,40.10917310000514,,,,2,40.11180329999479,74876.9838351,40.111711000005016,,42.11172539999825,42.14984719999484,42.163466900005005,4,42.16348200000357,74879.0355159,43.36201169999549,43.36205009999685,43.36449670000002,5,43.36451400000078,74880.2365498,,47.12210399999458,47.12214130000211,47.122199399993406,6,40.11174239999673,74876.983778,694220,001,2025-09-01_15h42.13.843,Graz,,2025.1.1,38.2316047680679,2025-09-01 15h42.21.331094 -0300,
C:\Users\User\Documents\GitHub\real_time_bci\stims\right_arrow.png,RIGHT_MI_STIM,6,6,0,0,6,6,8,47.124754199991,,,,,,47.122307400000864,,,,2,47.124820299999556,74883.9968518,47.124754199991,49.15491199999815,49.11066930000379,49.14819049999642,49.15491199999815,4,49.154929600001196,74886.0269638,50.38855249999324,50.3885883000039,50.39124470000388,5,50.39125859999331,74887.2632926,,54.148080600003595,54.14811969999573,54.148179900003015,6,47.124772700000904,74883.996807,694220,001,2025-09-01_15h42.13.843,Graz,,2025.1.1,38.2316047680679,2025-09-01 15h42.21.331094 -0300,
C:\Users\User\Documents\GitHub\real_time_bci\stims\left_arrow.png,LEFT_MI_STIM,7,7,0,0,7,7,0,54.15109020000091,,,,,,54.14828559999296,,,,2,54.15117850000388,74891.0232106,54.15109020000091,,56.15602199999557,56.19327340000018,56.20767849999538,3,56.2076953999931,74893.0797293,57.400798000002396,57.400834300002316,57.42825979999907,5,57.42828340000415,74894.3003183,,61.15500159999647,61.155038400000194,61.15509499999462,6,54.15111869999964,74891.0231546,694220,001,2025-09-01_15h42.13.843,Graz,,2025.1.1,38.2316047680679,2025-09-01 15h42.21.331094 -0300,
C:\Users\User\Documents\GitHub\real_time_bci\stims\left_arrow.png,LEFT_MI_STIM,8,8,0,0,8,8,3,61.1817990999989,,,,,,61.15519649999624,,,,2,61.18187939999916,74898.0539111,61.1817990999989,,63.165229499994894,63.206973799999105,63.21796569999424,3,63.21797909999441,74900.0900129,64.42656269999861,64.42660099999921,64.45480849999876,5,64.45483119999699,74901.326866,,68.16264959999535,68.16269369999645,68.1627615000034,6,61.18182440000237,74898.05386,694220,001,2025-09-01_15h42.13.843,Graz,,2025.1.1,38.2316047680679,2025-09-01 15h42.21.331094 -0300,
C:\Users\User\Documents\GitHub\real_time_bci\stims\right_arrow.png,RIGHT_MI_STIM,9,9,0,0,9,9,6,68.16559029999189,,,,,,68.1628791999974,,,,2,68.16567649999342,74905.0377086,68.16559029999189,,70.17198749999807,70.21825370000442,70.22462880000239,4,70.22464099999343,74907.0966746,71.4257007999986,71.42575330000545,71.45175599999493,5,71.45177889999468,74908.3238136,,75.1735372999974,75.17357899999479,75.17364019999513,6,68.16561559999536,74905.0376507,694220,001,2025-09-01_15h42.13.843,Graz,,2025.1.1,38.2316047680679,2025-09-01 15h42.21.331094 -0300,
C:\Users\User\Documents\GitHub\real_time_bci\stims\left_arrow.png,LEFT_MI_STIM,10,0,1,1,0,10,1,75.17702570000256,,,,,,75.17375600000378,,,,2,75.17708150000544,74912.049113,75.17702570000256,,77.18381220000447,77.22067769999558,77.23559070000192,3,77.23560739999812,74914.1076417,78.43165769999905,78.43170230000396,78.43443179999304,5,78.43445259999135,74915.3064893,82.19416879999335,82.16724739999336,82.16727659999742,82.16731069999514,6,75.17703849999816,74912.0490729,694220,001,2025-09-01_15h42.13.843,Graz,,2025.1.1,38.2316047680679,2025-09-01 15h42.21.331094 -0300,
C:\Users\User\Documents\GitHub\real_time_bci\stims\left_arrow.png,LEFT_MI_STIM,11,1,1,1,1,11,4,82.19416879999335,,,,,,82.16744699999981,,,,2,82.19424589999835,74919.0662775,82.19416879999335,,84.17095790000167,84.20908529999724,84.22296420000202,3,84.22298449999653,74921.0950193,85.4215039999981,85.42154090000258,85.42394949999289,5,85.4239760999917,74922.2960124,,89.18005949999497,89.18009579999489,89.18015339999693,6,82.19419480000215,74919.0662297,694220,001,2025-09-01_15h42.13.843,Graz,,2025.1.1,38.2316047680679,2025-09-01 15h42.21.331094 -0300,
C:\Users\User\Documents\GitHub\real_time_bci\stims\right_arrow.png,RIGHT_MI_STIM,12,2,1,1,2,12,7,89.18350559999817,,,,,,89.18025730000227,,,,2,89.18356419999327,74926.0555956,89.18350559999817,,91.18171770000481,91.2212365000014,91.23425929999212,4,91.23427359999914,74928.1063077,92.43467610000516,92.43471309999586,92.43719280000369,5,92.43721989999176,74929.3092579,,96.1856073999952,96.18569399999978,96.18583319999743,6,89.18352180000511,74926.0555559,694220,001,2025-09-01_15h42.13.843,Graz,,2025.1.1,38.2316047680679,2025-09-01 15h42.21.331094 -0300,
C:\Users\User\Documents\GitHub\real_time_bci\stims\left_arrow.png,LEFT_MI_STIM,13,3,1,1,3,13,0,96.2112960999948,,,,,,96.18609309999738,,,,2,96.21138300000166,74933.08342,96.2112960999948,,98.19839570000477,98.23570130000007,98.25486990000354,3,98.25489389999711,74935.126929,99.4359889000043,99.43603169999551,99.46387099999993,5,99.46389260000433,74936.3359273,,103.20372689999931,103.2037879999989,103.203909200005,6,96.2113207999937,74933.0833569,694220,001,2025-09-01_15h42.13.843,Graz,,2025.1.1,38.2316047680679,2025-09-01 15h42.21.331094 -0300,
C:\Users\User\Documents\GitHub\real_time_bci\stims\left_arrow.png,LEFT_MI_STIM,14,4,1,1,4,14,2,103.27886609999405,,,,,,103.20411069999682,,,,2,103.2789422999922,74940.1509737,103.27886609999405,,105.28197799999907,105.3214439000003,105.40495060000103,3,105.4049931000045,74942.277032,106.5208258999919,106.52086629999394,106.57145350000064,5,106.57148769999912,74943.4435257,,110.25421800000186,110.25425769999856,110.25431979999121,6,103.27888850000454,74940.1509236,694220,001,2025-09-01_15h42.13.843,Graz,,2025.1.1,38.2316047680679,2025-09-01 15h42.21.331094 -0300,
C:\Users\User\Documents\GitHub\real_time_bci\stims\right_arrow.png,RIGHT_MI_STIM,15,5,1,1,5,15,9,110.30455020000227,,,,,,110.25443549999909,,,,2,110.30462819999957,74947.1766599,110.30455020000227,,112.28186299999652,112.3201071999938,112.47711700000218,4,112.47715019999305,74949.3491873,113.539300000004,113.53933719999623,113.66186279999965,5,113.66189000000304,74950.5339252,,117.27803289999429,117.27811539999675,117.27817859999777,6,110.30457520000346,74947.17661,694220,001,2025-09-01_15h42.13.843,Graz,,2025.1.1,38.2316047680679,2025-09-01 15h42.21.331094 -0300,
C:\Users\User\Documents\GitHub\real_time_bci\stims\right_arrow.png,RIGHT_MI_STIM,16,6,1,1,6,16,5,117.38530639999954,,,,,,117.27829669999483,,,,2,117.38540379999904,74954.2574355,117.38530639999954,,119.27862329999334,119.31712930000504,119.44958099999349,4,119.44960690000153,74956.3216417,120.54570400000375,120.54574180000054,120.56551380000019,5,120.56553720000375,74957.4375726,,124.30647999999928,124.30652009999903,124.30658089999633,6,117.38533740000275,74954.2573737,694220,001,2025-09-01_15h42.13.843,Graz,,2025.1.1,38.2316047680679,2025-09-01 15h42.21.331094 -0300,
C:\Users\User\Documents\GitHub\real_time_bci\stims\right_arrow.png,RIGHT_MI_STIM,17,7,1,1,7,17,8,124.30928639999183,,,,,,124.30669070000295,,,,2,124.30937099999574,74961.1814033,124.30928639999183,,126.31069529999513,126.40780559999985,126.46856340000522,4,126.46858770000108,74963.3406228,127.56925509999564,127.56929479999235,127.628443900001,5,127.62846969999373,74964.5005042,,131.30926049999835,131.30932519999624,131.30941390000226,6,124.3093116999953,74961.181347,694220,001,2025-09-01_15h42.13.843,Graz,,2025.1.1,38.2316047680679,2025-09-01 15h42.21.331094 -0300,
C:\Users\User\Documents\GitHub\real_time_bci\stims\left_arrow.png,LEFT_MI_STIM,18,8,1,1,8,18,3,131.33576410000387,,,,,,131.30954960000236,,,,2,131.33583779999753,74968.207869,131.33576410000387,,133.3162444000045,133.35300400000415,133.36464509999496,3,133.3646657999925,74970.2367002,,,,,,,,,,,6,131.33578660000057,74968.2078215,,,,,,,,,
