img,event_label,thisN,thisTrialN,thisRepN,trials.thisRepN,trials.thisTrialN,trials.thisN,trials.thisIndex,thisRow.t,notes,Start_LSL.started,Start_LSL.stopped,Baseline.started,Baseline.stopped,Attention.started,BASELINE_code,BASELINE_tGlob,BASELINE_tLSL,ATTENTION_code,ATTENTION_tGlob,ATTENTION_tLSL,attention_cross.started,Attention.stopped,Stim.started,motor_cue.started,STIM_code,STIM_tGlob,STIM_tLSL,Stim.stopped,Attempt.started,attempt.started,ATTEMPT_code,ATTEMPT_tGlob,ATTEMPT_tLSL,attempt.stopped,Attempt.stopped,Rest.started,Rest.stopped,REST_code,REST_tGlob,REST_tLSL,attention_cross.stopped,participant,session,date,expName,expVersion,psychopyVersion,frameRate,expStart,
,,,,,,,,,,,0.06469860000652261,0.06477209999866318,,,,,,,,,,,,,,,,,,,,,,,,,,,,,,,791162,001,2025-09-01_13h52.42.084,Graz,,2025.1.1,37.653295981312446,2025-09-01 13h52.49.663249 -0300,
,,,,,,,,,,,,,0.06480290000035893,0.064839500002563,,,,,,,,,,,,,,,,,,,,,,,,,,,,,791162,001,2025-09-01_13h52.42.084,Graz,,2025.1.1,37.653295981312446,2025-09-01 13h52.49.663249 -0300,
C:\Users\User\Documents\GitHub\real_time_bci\stims\left_arrow.png,LEFT_MI_STIM,0,0,0,0,0,0,0,0.08903360000113025,,,,,,0.06929070000478532,1,0.08904839999740943,68265.317598,2,0.08908570000494365,68265.3176326,5.082721200000378,7.077327599996352,7.157279000006383,7.176564800000051,3,7.176582600004622,68272.4051331,8.31998480000766,8.32002640000428,8.322677400006796,5,8.322702399993432,68273.5512534,12.062358199997107,12.058931899999152,12.058961799993995,12.058996000007028,,,,,791162,001,2025-09-01_13h52.42.084,Graz,,2025.1.1,37.653295981312446,2025-09-01 13h52.49.663249 -0300,
C:\Users\User\Documents\GitHub\real_time_bci\stims\left_arrow.png,LEFT_MI_STIM,1,1,0,0,1,1,1,12.062358199997107,,,,,,12.059103499996127,,,,2,12.062454600003548,68277.2910028,12.062358199997107,14.049161300004926,14.09134549999726,14.101772900001379,3,14.101817100003245,68279.3303704,15.324270299999625,15.324307200004114,15.350678600007086,5,15.35070490000362,68280.579256,,19.07732159999432,19.0773601999972,19.077419099994586,6,12.062392299994826,68277.2909439,14.101772900001379,791162,001,2025-09-01_13h52.42.084,Graz,,2025.1.1,37.653295981312446,2025-09-01 13h52.49.663249 -0300,
C:\Users\User\Documents\GitHub\real_time_bci\stims\left_arrow.png,LEFT_MI_STIM,2,2,0,0,2,2,4,19.08931080000184,,,,,,19.077533200004837,,,,2,19.089386100007687,68284.3179332,19.08931080000184,21.093171500004246,21.12928049999755,21.166327800005092,3,21.166352500003995,68286.394903,22.343078899997636,22.343119600001955,22.346229799994035,5,22.346252899995307,68287.5748035,,26.08337969999411,26.083432500003255,26.083499800006393,6,19.089332899995497,68284.3178831,,791162,001,2025-09-01_13h52.42.084,Graz,,2025.1.1,37.653295981312446,2025-09-01 13h52.49.663249 -0300,
C:\Users\User\Documents\GitHub\real_time_bci\stims\right_arrow.png,RIGHT_MI_STIM,3,3,0,0,3,3,6,26.086930499994196,,,,,,26.08361820000573,,,,2,26.087034900003346,68291.3155837,26.086930499994196,28.070448400001624,28.110489400001825,28.14154409999901,4,28.141577899994445,68293.3701289,29.355967900002724,29.356004200002644,29.383955800003605,5,29.383980300000985,68294.6125307,,33.10116530000232,33.10120499999903,33.101263300006394,6,26.08697010000469,68291.3155219,28.14154409999901,791162,001,2025-09-01_13h52.42.084,Graz,,2025.1.1,37.653295981312446,2025-09-01 13h52.49.663249 -0300,
C:\Users\User\Documents\GitHub\real_time_bci\stims\right_arrow.png,RIGHT_MI_STIM,4,4,0,0,4,4,8,33.12687979999464,,,,,,33.10138370000641,,,,2,33.12696170000709,68298.3555093,33.12687979999464,35.10165979999874,35.13953290000791,35.17367819999345,4,35.17370410000149,68300.4022548,36.37469369999599,36.374733499993454,36.40198939999391,5,36.4020126999967,68301.6305631,,40.102826000002096,40.10288099999889,40.10295070000575,6,33.12690509999811,68298.3554553,,791162,001,2025-09-01_13h52.42.084,Graz,,2025.1.1,37.653295981312446,2025-09-01 13h52.49.663249 -0300,
C:\Users\User\Documents\GitHub\real_time_bci\stims\left_arrow.png,LEFT_MI_STIM,5,5,0,0,5,5,3,40.128753099997994,,,,,,40.10307379999722,,,,2,40.12883299999521,68305.3573806,40.128753099997994,42.137934600003064,42.17468880000524,42.19048509999993,3,42.19050880000577,68307.4190588,43.354200100002345,43.35423670000455,43.35662049999519,5,43.356643299994175,68308.5851949,,47.11217619999661,47.11221479999949,47.11227480000525,6,40.12877710000612,68305.3573275,,791162,001,2025-09-01_13h52.42.084,Graz,,2025.1.1,37.653295981312446,2025-09-01 13h52.49.663249 -0300,
C:\Users\User\Documents\GitHub\real_time_bci\stims\left_arrow.png,LEFT_MI_STIM,6,6,0,0,6,6,2,47.1156278999988,,,,,,47.112393500006874,,,,2,47.1157366999978,68312.3442874,47.1156278999988,49.100466599993524,49.136540499996045,49.173319299996365,3,49.173351999997976,68314.4019021,50.36237410000467,50.362420399993425,50.38794169999892,5,50.387965000001714,68315.6165153,,54.12414149999677,54.124179000005824,54.12428269999509,6,47.115655100002186,68312.3442054,49.173319299996365,791162,001,2025-09-01_13h52.42.084,Graz,,2025.1.1,37.653295981312446,2025-09-01 13h52.49.663249 -0300,
C:\Users\User\Documents\GitHub\real_time_bci\stims\right_arrow.png,RIGHT_MI_STIM,7,7,0,0,7,7,7,54.1276949000021,,,,,,54.12439500000619,,,,2,54.12778860000253,68319.356336,54.1276949000021,56.1243775000039,56.16134649999731,56.20804310000676,4,56.208071600005496,68321.4366215,57.375440799994976,57.37548040000547,57.37851850000152,5,57.37854439999501,68322.6070951,,61.12876789999427,61.12881120000384,61.1288721000019,6,54.12772479999694,68319.3562758,56.20804310000676,791162,001,2025-09-01_13h52.42.084,Graz,,2025.1.1,37.653295981312446,2025-09-01 13h52.49.663249 -0300,
C:\Users\User\Documents\GitHub\real_time_bci\stims\right_arrow.png,RIGHT_MI_STIM,8,8,0,0,8,8,9,61.132599400007166,,,,,,61.128991000005044,,,,2,61.13268850000168,68326.3612373,61.132599400007166,63.1285721000022,63.16493339999579,63.194331499995315,4,63.19436160000623,68328.4229121,64.41319479999947,64.41323499999999,64.41628679999849,5,64.41630640000221,68329.6448563,,68.13022249999631,68.13026320000063,68.13032189999649,6,61.13262269999541,68326.3611737,63.194331499995315,791162,001,2025-09-01_13h52.42.084,Graz,,2025.1.1,37.653295981312446,2025-09-01 13h52.49.663249 -0300,
C:\Users\User\Documents\GitHub\real_time_bci\stims\right_arrow.png,RIGHT_MI_STIM,9,9,0,0,9,9,5,68.18021760000556,,,,,,68.13044870000158,,,,2,68.18036209999991,68333.4089118,68.18021760000556,70.14040780000505,70.17723899999692,70.19258339999942,4,70.19259750000492,68335.4211468,71.40036210000108,71.40040040000167,71.42847670000629,5,71.42850389999512,68336.6570553,,75.14133009999932,75.14136969999527,75.14142790000187,6,68.18027949999669,68333.4088315,,791162,001,2025-09-01_13h52.42.084,Graz,,2025.1.1,37.653295981312446,2025-09-01 13h52.49.663249 -0300,
C:\Users\User\Documents\GitHub\real_time_bci\stims\left_arrow.png,LEFT_MI_STIM,10,0,1,1,0,10,3,75.14469299999473,,,,,,75.14154389999749,,,,2,75.14478889999737,68340.3733409,75.14469299999473,77.14743250000174,77.1833129000006,77.22208619999583,3,77.22211000000243,68342.4506605,78.39824059999955,78.39827890000015,78.42297050000343,5,78.4229958000069,68343.6515458,,82.15286560000095,82.15291370000341,82.1529867000063,6,75.1447130000015,68340.3732638,,791162,001,2025-09-01_13h52.42.084,Graz,,2025.1.1,37.653295981312446,2025-09-01 13h52.49.663249 -0300,
C:\Users\User\Documents\GitHub\real_time_bci\stims\left_arrow.png,LEFT_MI_STIM,11,1,1,1,1,11,4,82.15578169999935,,,,,,82.15313819999574,,,,2,82.15589429999818,68347.3844472,82.15578169999935,84.14179019999574,84.1784578999941,84.21360529999947,3,84.21363579999888,68349.4421874,85.43224219999684,85.43227940000361,85.43490930000553,5,85.43493050000689,68350.6634819,,89.15570319999824,89.15574000000197,89.15579550000257,6,82.1558084999997,68347.3843632,84.21360529999947,791162,001,2025-09-01_13h52.42.084,Graz,,2025.1.1,37.653295981312446,2025-09-01 13h52.49.663249 -0300,
C:\Users\User\Documents\GitHub\real_time_bci\stims\right_arrow.png,RIGHT_MI_STIM,12,2,1,1,2,12,5,89.16080199999851,,,,,,89.15590690000681,,,,2,89.160890500003,68354.3894386,89.16080199999851,91.14835170000151,91.18525019999652,91.22162929999467,4,91.22165960000711,68356.4502103,92.42269740000484,92.42273489999934,92.42742659999931,5,92.42745020000439,68357.6560004,,96.17886559999897,96.1789054999972,96.17896710000059,6,89.16082659999665,68354.3893776,91.22162929999467,791162,001,2025-09-01_13h52.42.084,Graz,,2025.1.1,37.653295981312446,2025-09-01 13h52.49.663249 -0300,
C:\Users\User\Documents\GitHub\real_time_bci\stims\right_arrow.png,RIGHT_MI_STIM,13,3,1,1,3,13,8,96.20441120000032,,,,,,96.17908230000467,,,,2,96.20449020000524,68361.4330373,96.20441120000032,98.22675050000544,98.26358840000466,98.2777602999995,4,98.277774400005,68363.506324,99.43641239999852,99.43644980000681,99.43885659999796,5,99.43887820000236,68364.6674302,103.17694269999629,103.17413430000306,103.17416650000087,103.17419970000628,6,96.20443610000075,68361.4329864,,791162,001,2025-09-01_13h52.42.084,Graz,,2025.1.1,37.653295981312446,2025-09-01 13h52.49.663249 -0300,
C:\Users\User\Documents\GitHub\real_time_bci\stims\left_arrow.png,LEFT_MI_STIM,14,4,1,1,4,14,0,103.17694269999629,,,,,,103.1743126000074,,,,2,103.17704429999867,68368.4055924,103.17694269999629,105.18096979999973,105.22026080000796,105.25550680000742,3,105.25553239999863,68370.4840833,106.43121959999553,106.43126610000036,106.45623359999445,5,106.45625839999411,68371.6848089,,110.17628620000323,110.17636139999377,110.1764422999986,6,103.17697309999494,68368.4055254,,791162,001,2025-09-01_13h52.42.084,Graz,,2025.1.1,37.653295981312446,2025-09-01 13h52.49.663249 -0300,
C:\Users\User\Documents\GitHub\real_time_bci\stims\left_arrow.png,LEFT_MI_STIM,15,5,1,1,5,15,1,110.22585430000618,,,,,,110.17657310000504,,,,2,110.22596379999595,68375.4545118,110.22585430000618,112.19629330000316,112.23233189999883,112.24905470000522,3,112.24906899999769,68377.4776189,113.42942109999422,113.42947269999422,113.43189930000517,5,113.43192240000644,68378.6604734,,117.18946599999617,117.18950769999356,117.18956640000397,6,110.22587969999586,68375.4544307,,791162,001,2025-09-01_13h52.42.084,Graz,,2025.1.1,37.653295981312446,2025-09-01 13h52.49.663249 -0300,
C:\Users\User\Documents\GitHub\real_time_bci\stims\right_arrow.png,RIGHT_MI_STIM,16,6,1,1,6,16,7,117.19282799999928,,,,,,117.18967999999586,,,,2,117.19294320000336,68382.4214934,117.19282799999928,119.18632380000781,119.22316850000061,119.23782769999525,4,119.237844400006,68384.466394,120.45892049999384,120.4589721999946,120.48320760000206,5,120.48323310000706,68385.7117832,,124.21467879999545,124.21471949999977,124.21477849999792,6,117.19285890000174,68382.4214132,119.23782769999525,791162,001,2025-09-01_13h52.42.084,Graz,,2025.1.1,37.653295981312446,2025-09-01 13h52.49.663249 -0300,
C:\Users\User\Documents\GitHub\real_time_bci\stims\right_arrow.png,RIGHT_MI_STIM,17,7,1,1,7,17,9,124.21742780000204,,,,,,124.21489250000741,,,,2,124.21753910000552,68389.4460867,124.21742780000204,126.2234868999949,126.26103500000318,126.30063969999901,4,126.30066560000705,68391.5292166,127.48491009999998,127.48495019999973,127.4873074000061,5,127.48732339999697,68392.7158735,,131.21531780000078,131.21535430000222,131.21541119999893,6,124.21747550000146,68389.4460288,,791162,001,2025-09-01_13h52.42.084,Graz,,2025.1.1,37.653295981312446,2025-09-01 13h52.49.663249 -0300,
C:\Users\User\Documents\GitHub\real_time_bci\stims\right_arrow.png,RIGHT_MI_STIM,18,8,1,1,8,18,6,131.24229080000077,,,,,,131.21551819999877,,,,2,131.24237079999875,68396.4709182,131.24229080000077,133.2354359000019,133.27362019999418,133.3130175999977,4,133.31304389999423,68398.5415947,134.48821429999953,134.48825270000088,134.54025180000463,5,134.54027539999515,68399.7688257,,138.2389824999991,138.23906599999464,138.23914550000336,6,131.24231420000433,68396.4708646,,791162,001,2025-09-01_13h52.42.084,Graz,,2025.1.1,37.653295981312446,2025-09-01 13h52.49.663249 -0300,
C:\Users\User\Documents\GitHub\real_time_bci\stims\left_arrow.png,LEFT_MI_STIM,19,9,1,1,9,19,2,138.28773520000686,,,,,,138.23932459999924,,,,2,138.28788119999808,68403.5164338,138.28773520000686,140.24184990000504,140.27867840000545,140.33999449999828,3,140.3400232999993,68405.568575,141.49754810000013,141.49758819999988,141.52455909999844,5,141.52458500000648,68406.7531351,,145.26336420000007,145.2634015999938,145.26346139999805,6,138.28777439999976,68403.5163493,,791162,001,2025-09-01_13h52.42.084,Graz,,2025.1.1,37.653295981312446,2025-09-01 13h52.49.663249 -0300,
,,,,,,,,,,,,,,,,,,,,,,,,,,,,,,,,,,,,,,,6,145.31182430000626,68410.5403805,,,,,,,,,,
