img,event_label,thisN,thisTrialN,thisRepN,trials.thisRepN,trials.thisTrialN,trials.thisN,trials.thisIndex,thisRow.t,notes,Start_LSL.started,Start_LSL.stopped,Baseline.started,Baseline.stopped,Attention.started,BASELINE_code,BASELINE_tGlob,BASELINE_tLSL,ATTENTION_code,ATTENTION_tGlob,ATTENTION_tLSL,attention_cross.started,Attention.stopped,Stim.started,motor_cue.started,STIM_code,STIM_tGlob,STIM_tLSL,Stim.stopped,Attempt.started,attempt.started,ATTEMPT_code,ATTEMPT_tGlob,ATTEMPT_tLSL,Attempt.stopped,Rest.started,Rest.stopped,REST_code,REST_tGlob,REST_tLSL,participant,session,date,expName,expVersion,psychopyVersion,frameRate,expStart,
,,,,,,,,,,,0.13765050005167723,0.13772130012512207,,,,,,,,,,,,,,,,,,,,,,,,,,,,,808401,001,2025-08-28_17h07.48.946,Graz,,2025.1.1,59.83820945727936,2025-08-28 17h07.59.834301 -0300,
,,,,,,,,,,,,,0.13775380002334714,0.13778930017724633,,,,,,,,,,,,,,,,,,,,,,,,,,,808401,001,2025-08-28_17h07.48.946,Graz,,2025.1.1,59.83820945727936,2025-08-28 17h07.59.834301 -0300,
C:\Users\User\Documents\GitHub\real_time_bci\stims\right_arrow.png,RIGHT_MI_STIM,0,0,0,0,0,0,8,0.14574760012328625,,,,,,0.142693700036034,1,0.14587300014682114,1240088.7955119,2,0.14607900008559227,1240088.7956969,5.151278499979526,7.138322600163519,7.196132100187242,7.200594200054184,4,7.200608400162309,1240095.850219,8.390655900118873,8.390692400047556,8.407161100069061,5,8.407183200120926,1240097.0567953,12.149665700038895,12.149705399991944,12.149767100112513,,,,808401,001,2025-08-28_17h07.48.946,Graz,,2025.1.1,59.83820945727936,2025-08-28 17h07.59.834301 -0300,
C:\Users\User\Documents\GitHub\real_time_bci\stims\right_arrow.png,RIGHT_MI_STIM,1,1,0,0,1,1,9,12.164293200010434,,,,,,12.149886700091884,,,,2,12.164408500073478,1240100.8140174,12.164293200010434,14.151674800086766,14.203571600141004,14.207584399962798,4,14.207598200067878,1240102.857209,15.403304300038144,15.403343900106847,15.42003250005655,5,15.420057100011036,1240104.0696687,19.160638600122184,19.160690900171176,19.160779100144282,6,12.164324800018221,1240100.8139403,808401,001,2025-08-28_17h07.48.946,Graz,,2025.1.1,59.83820945727936,2025-08-28 17h07.59.834301 -0300,
C:\Users\User\Documents\GitHub\real_time_bci\stims\left_arrow.png,LEFT_MI_STIM,2,2,0,0,2,2,1,19.177241099998355,,,,,,19.16110510006547,,,,2,19.17734090005979,1240107.826953,19.177241099998355,21.164037100039423,21.20448700012639,21.208451500162482,3,21.208470599958673,1240109.8580819,22.41740470007062,22.417513699969277,22.433509499998763,5,22.433594700181857,1240111.0832274,26.17309659998864,26.173138099955395,26.17320240009576,6,19.177267800085247,1240107.8268812,808401,001,2025-08-28_17h07.48.946,Graz,,2025.1.1,59.83820945727936,2025-08-28 17h07.59.834301 -0300,
C:\Users\User\Documents\GitHub\real_time_bci\stims\left_arrow.png,LEFT_MI_STIM,3,3,0,0,3,3,0,26.189813000150025,,,,,,26.173316800035536,,,,2,26.18990970007144,1240114.8395219,26.189813000150025,28.176672599976882,28.22404530015774,28.22907150001265,3,28.22912020003423,1240116.8787368,29.430740100098774,29.430803100112826,29.445814199978486,5,29.445851300144568,1240118.0954676,33.18589000008069,33.18592650000937,33.18598389998078,6,26.18983849999495,1240114.8394523,808401,001,2025-08-28_17h07.48.946,Graz,,2025.1.1,59.83820945727936,2025-08-28 17h07.59.834301 -0300,
C:\Users\User\Documents\GitHub\real_time_bci\stims\left_arrow.png,LEFT_MI_STIM,4,4,0,0,4,4,2,33.202442000154406,,,,,,33.18609510012902,,,,2,33.20251510012895,1240121.8521239,33.202442000154406,35.189569000154734,35.22929479996674,35.233294900041074,3,35.233312300173566,1240123.8829239,36.441827200120315,36.44186730007641,36.45843040011823,5,36.458458699984476,1240125.1080713,40.198888200102374,40.19893330009654,40.19899730011821,6,33.202463099965826,1240121.8520743,808401,001,2025-08-28_17h07.48.946,Graz,,2025.1.1,59.83820945727936,2025-08-28 17h07.59.834301 -0300,
C:\Users\User\Documents\GitHub\real_time_bci\stims\right_arrow.png,RIGHT_MI_STIM,5,5,0,0,5,5,5,40.21769300010055,,,,,,40.19911350007169,,,,2,40.21776770008728,1240128.8673761,40.21769300010055,42.20234870002605,42.23982600006275,42.24371730000712,4,42.24373190011829,1240130.8933431,43.45494049997069,43.4549915001262,43.4712004000321,5,43.47122379997745,1240132.1208365,47.2117233001627,47.211776399984956,47.21186519996263,6,40.217716900166124,1240128.8673285,808401,001,2025-08-28_17h07.48.946,Graz,,2025.1.1,59.83820945727936,2025-08-28 17h07.59.834301 -0300,
C:\Users\User\Documents\GitHub\real_time_bci\stims\right_arrow.png,RIGHT_MI_STIM,6,6,0,0,6,6,7,47.22832310013473,,,,,,47.212010600138456,,,,2,47.22843450005166,1240135.8780471,47.22832310013473,49.21541119995527,49.25531510007568,49.25925170001574,4,49.25927130016498,1240137.9088831,50.467567099956796,50.46760630002245,50.483979400014505,5,50.48400150006637,1240139.133613,54.22466509998776,54.22472429997288,54.224825700046495,6,47.22835710016079,1240135.8779714,808401,001,2025-08-28_17h07.48.946,Graz,,2025.1.1,59.83820945727936,2025-08-28 17h07.59.834301 -0300,
C:\Users\User\Documents\GitHub\real_time_bci\stims\left_arrow.png,LEFT_MI_STIM,7,7,0,0,7,7,3,54.240946599980816,,,,,,54.22503149998374,,,,2,54.24102469999343,1240142.8906337,54.240946599980816,56.229350600158796,56.26723310002126,56.27116470015608,3,56.27117850002833,1240144.9207893,57.48266740003601,57.48270400008187,57.496892099967226,5,57.4969160000328,1240146.1465285,61.23698950000107,61.23702900018543,61.23709290008992,6,54.240970300044864,1240142.8905827,808401,001,2025-08-28_17h07.48.946,Graz,,2025.1.1,59.83820945727936,2025-08-28 17h07.59.834301 -0300,
C:\Users\User\Documents\GitHub\real_time_bci\stims\right_arrow.png,RIGHT_MI_STIM,8,8,0,0,8,8,6,61.25363010005094,,,,,,61.23721000016667,,,,2,61.25370980007574,1240149.9033188,61.25363010005094,63.24065540009178,63.28967700013891,63.29389710002579,4,63.29393090005033,1240151.9435446,64.49296850012615,64.49300929997116,64.50956659996882,5,64.509604500141,1240153.159219,68.2497571001295,68.2497938000597,68.2498528000433,6,61.25365490000695,1240149.9032674,808401,001,2025-08-28_17h07.48.946,Graz,,2025.1.1,59.83820945727936,2025-08-28 17h07.59.834301 -0300,
C:\Users\User\Documents\GitHub\real_time_bci\stims\left_arrow.png,LEFT_MI_STIM,9,9,0,0,9,9,4,68.2664783000946,,,,,,68.24996190005913,,,,2,68.26655749999918,1240156.9161665,68.2664783000946,70.25353340012953,70.29329219995998,70.29738260013983,3,70.29740889999084,1240158.947021,71.50579160009511,71.50583100016229,71.52236400009133,5,71.52238660003059,1240160.1719987,75.2627260000445,75.26276900013909,75.26283659995534,6,68.26650290004909,1240156.9161148,808401,001,2025-08-28_17h07.48.946,Graz,,2025.1.1,59.83820945727936,2025-08-28 17h07.59.834301 -0300,
C:\Users\User\Documents\GitHub\real_time_bci\stims\left_arrow.png,LEFT_MI_STIM,10,0,1,1,0,10,0,75.2792700000573,,,,,,75.26296459999867,,,,2,75.27934800018556,1240163.9289576,75.2792700000573,77.26625820016488,77.30449670017697,77.3084264001809,3,77.30844700010493,1240165.9580596,78.51865159999579,78.51869030017406,78.53549350006506,5,78.53551790001802,1240167.18513,82.27565770014189,82.27573280013166,82.27584030013531,6,75.2792929999996,1240163.9289046,808401,001,2025-08-28_17h07.48.946,Graz,,2025.1.1,59.83820945727936,2025-08-28 17h07.59.834301 -0300,
C:\Users\User\Documents\GitHub\real_time_bci\stims\left_arrow.png,LEFT_MI_STIM,11,1,1,1,1,11,4,82.2948122001253,,,,,,82.27604770008475,,,,2,82.29490280011669,1240170.9445119,82.2948122001253,84.28059160010889,84.3341402001679,84.33855190011673,3,84.33857899997383,1240172.9881917,85.53182250005193,85.53187380009331,85.54831490013748,5,85.54834050009958,1240174.1979542,89.28838380007073,89.28843900002539,89.28853520005941,6,82.29483420006,1240170.9444458,808401,001,2025-08-28_17h07.48.946,Graz,,2025.1.1,59.83820945727936,2025-08-28 17h07.59.834301 -0300,
C:\Users\User\Documents\GitHub\real_time_bci\stims\left_arrow.png,LEFT_MI_STIM,12,2,1,1,2,12,3,89.30526860011742,,,,,,89.28868330013938,,,,2,89.30537590011954,1240177.9549875,89.30526860011742,91.29291670001112,91.33500310010277,91.3389043000061,3,91.3389328001067,1240179.9885444,92.54409580002539,92.54413340007886,92.56068930006586,5,92.56071210000664,1240181.210324,96.30090450006537,96.30094450013712,96.3010043001268,6,89.30530120013282,1240177.954915,808401,001,2025-08-28_17h07.48.946,Graz,,2025.1.1,59.83820945727936,2025-08-28 17h07.59.834301 -0300,
C:\Users\User\Documents\GitHub\real_time_bci\stims\right_arrow.png,RIGHT_MI_STIM,13,3,1,1,3,13,6,96.31754170008935,,,,,,96.30111580016091,,,,2,96.3176140000578,1240184.9672225,96.31754170008935,98.30494790012017,98.34282140014693,98.34839050006121,4,98.34840530017391,1240186.9980166,99.55721640004776,99.5572973000817,99.57358189998195,5,99.57363080000505,1240188.2232463,103.31381430011243,103.31385740009136,103.3139190999791,6,96.31756430002861,1240184.9671755,808401,001,2025-08-28_17h07.48.946,Graz,,2025.1.1,59.83820945727936,2025-08-28 17h07.59.834301 -0300,
C:\Users\User\Documents\GitHub\real_time_bci\stims\right_arrow.png,RIGHT_MI_STIM,14,4,1,1,4,14,5,103.33038479997776,,,,,,103.31405330006965,,,,2,103.33045860007405,1240191.980067,103.33038479997776,105.31823560013436,105.37356710014865,105.37776020006277,4,105.37781090009958,1240194.0274313,106.56975969998166,106.56980679999106,106.58660669997334,5,106.58663160004653,1240195.2362449,110.3264715000987,110.32650990015827,110.3265680000186,6,103.33040650002658,1240191.9800182,808401,001,2025-08-28_17h07.48.946,Graz,,2025.1.1,59.83820945727936,2025-08-28 17h07.59.834301 -0300,
C:\Users\User\Documents\GitHub\real_time_bci\stims\right_arrow.png,RIGHT_MI_STIM,15,5,1,1,5,15,8,110.34440669999458,,,,,,110.32668310008012,,,,2,110.34447780018672,1240198.9940862,110.34440669999458,112.33009110018611,112.36831640009768,112.37225940008648,4,112.37227290007286,1240201.0218837,113.58245700015686,113.58249910012819,113.59908990003169,5,113.59911269997247,1240202.2487249,117.33961460017599,117.33969980012625,117.33979340014048,6,110.344427900156,1240198.9940393,808401,001,2025-08-28_17h07.48.946,Graz,,2025.1.1,59.83820945727936,2025-08-28 17h07.59.834301 -0300,
C:\Users\User\Documents\GitHub\real_time_bci\stims\right_arrow.png,RIGHT_MI_STIM,16,6,1,1,6,16,7,117.35590820014477,,,,,,117.33992870012298,,,,2,117.35601119999774,1240206.0056211,117.35590820014477,119.34341580001637,119.38508090004325,119.38908490003087,4,119.38911100011319,1240208.0387241,120.59814580017701,120.5982185001485,120.61192680010572,5,120.61195090017281,1240209.2615624,124.35287980013527,124.35296600009315,124.35308100003749,6,117.35594230005518,1240206.0055572,808401,001,2025-08-28_17h07.48.946,Graz,,2025.1.1,59.83820945727936,2025-08-28 17h07.59.834301 -0300,
C:\Users\User\Documents\GitHub\real_time_bci\stims\left_arrow.png,LEFT_MI_STIM,17,7,1,1,7,17,2,124.36938080005348,,,,,,124.3532199000474,,,,2,124.36959280003794,1240213.0192096,124.36938080005348,126.35670220013708,126.41148500004783,126.41542880004272,3,126.41544210002758,1240215.0650529,127.61099459999241,127.61103749996983,127.62534370017238,5,127.62541540013626,1240216.2750346,131.36502000014298,131.36506139999256,131.36512170010246,6,124.36945200012997,1240213.0190753,808401,001,2025-08-28_17h07.48.946,Graz,,2025.1.1,59.83820945727936,2025-08-28 17h07.59.834301 -0300,
C:\Users\User\Documents\GitHub\real_time_bci\stims\left_arrow.png,LEFT_MI_STIM,18,8,1,1,8,18,1,131.38154720002785,,,,,,131.3652331000194,,,,2,131.3816203000024,1240220.0312288,131.38154720002785,133.36860990012065,133.4054270000197,133.40965780010447,3,133.40967860003002,1240222.0592907,134.62103270017542,134.62109669996426,134.6376202001702,5,134.63764360011555,1240223.2872565,138.3777904000599,138.37782769999467,138.37788829999045,6,131.38156890007667,1240220.0311808,808401,001,2025-08-28_17h07.48.946,Graz,,2025.1.1,59.83820945727936,2025-08-28 17h07.59.834301 -0300,
C:\Users\User\Documents\GitHub\real_time_bci\stims\right_arrow.png,RIGHT_MI_STIM,19,9,1,1,9,19,9,138.39439430017956,,,,,,138.37799850013107,,,,2,138.39447020017542,1240227.0440788,138.39439430017956,140.38147690007463,140.4209625001531,140.42523880000226,4,140.42527720006183,1240229.0748918,141.63409020006657,141.6341437001247,141.65069469995797,5,141.650722600054,1240230.3003364,145.3908584001474,145.390904400032,145.3909716999624,6,138.3944182000123,1240227.0440307,808401,001,2025-08-28_17h07.48.946,Graz,,2025.1.1,59.83820945727936,2025-08-28 17h07.59.834301 -0300,
,,,,,,,,,,,,,,,,,,,,,,,,,,,,,,,,,,,,,,6,145.40919450018555,1240234.0588061,,,,,,,,,
