img,event_label,thisN,thisTrialN,thisRepN,trials.thisRepN,trials.thisTrialN,trials.thisN,trials.thisIndex,thisRow.t,notes,Start_LSL.started,Start_LSL.stopped,Baseline.started,Baseline.stopped,Attention.started,BASELINE_code,BASELINE_tGlob,BASELINE_tLSL,ATTENTION_code,ATTENTION_tGlob,ATTENTION_tLSL,attention_cross.started,attention_cross.stopped,Attention.stopped,Stim.started,motor_cue.started,STIM_code,STIM_tGlob,STIM_tLSL,Stim.stopped,Attempt.started,attempt.started,ATTEMPT_code,ATTEMPT_tGlob,ATTEMPT_tLSL,Attempt.stopped,Rest.started,image_2.started,REST_code,REST_tGlob,REST_tLSL,Rest.stopped,End.started,End.stopped,BLOCK_END_code,BLOCK_END_tGlob,BLOCK_END_tLSL,participant,session,date,expName,expVersion,psychopyVersion,frameRate,expStart,
,,,,,,,,,,,0.07991810003295541,0.07999739982187748,,,,,,,,,,,,,,,,,,,,,,,,,,,,,,,,,,,,959311,001,2026-06-07_18h48.35.894,Graz,,2025.1.1,59.04233342797133,2026-06-07 18h48.41.106643 -0300,
,,,,,,,,,,,,,0.08003429975360632,0.08006960013881326,,,,,,,,,,,,,,,,,,,,,,,,,,,,,,,,,,959311,001,2026-06-07_18h48.35.894,Graz,,2025.1.1,59.04233342797133,2026-06-07 18h48.41.106643 -0300,
C:\Users\User\Documents\GitHub\real_time_bci\stims\left_hand.png,LEFT_MI_STIM,0,0,0,0,0,0,2,0.09647879982367158,,,,,,0.08488109987229109,1,0.0965021001175046,2217999.6231611,2,0.0965485000051558,2217999.6232037,3.0871107997372746,5.140585099812597,5.072612599935383,5.133382400032133,5.140585099812597,3,5.140635000076145,2218004.6672991,6.3414419000037014,6.341490800026804,6.357746900059283,5,6.35777230001986,2218005.8844308,10.080916699953377,10.080953599885106,10.097491799853742,6,10.097512300126255,2218009.6241697,12.084951700177044,,,,,,959311,001,2026-06-07_18h48.35.894,Graz,,2025.1.1,59.04233342797133,2026-06-07 18h48.41.106643 -0300,
C:\Users\User\Documents\GitHub\real_time_bci\stims\left_hand.png,LEFT_MI_STIM,1,1,0,0,1,1,4,12.101027300115675,,,,,,12.085085799917579,,,,2,12.101051299832761,2218011.627709,12.101027300115675,,14.088362299837172,14.13213439984247,14.139485199935734,3,14.139502699952573,2218013.6661606,15.341352600138634,15.341395299881697,15.357414999976754,5,15.357436699792743,2218014.8840946,19.080551399849355,19.080589199904352,19.097203500103205,6,19.09722389979288,2218018.6238818,21.084213300142437,,,,,,959311,001,2026-06-07_18h48.35.894,Graz,,2025.1.1,59.04233342797133,2026-06-07 18h48.41.106643 -0300,
C:\Users\User\Documents\GitHub\real_time_bci\stims\left_hand.png,LEFT_MI_STIM,2,2,0,0,2,2,3,21.100957099813968,,,,,,21.084363699890673,,,,2,21.100985399913043,2218020.6276431,21.100957099813968,,23.087890699971467,23.134237399790436,23.13917660014704,3,23.13919320004061,2218022.665851,24.343291699886322,24.343373000156134,24.35773540008813,5,24.35775989992544,2218023.8844186,28.08067149994895,28.08071170002222,28.09698439994827,6,28.097004699986428,2218027.6236622,30.083985299803317,,,,,,959311,001,2026-06-07_18h48.35.894,Graz,,2025.1.1,59.04233342797133,2026-06-07 18h48.41.106643 -0300,
C:\Users\User\Documents\GitHub\real_time_bci\stims\right_hand.png,RIGHT_MI_STIM,3,3,0,0,3,3,6,30.101728499867022,,,,,,30.08411129983142,,,,2,30.10177609976381,2218029.6284384,30.101728499867022,,32.087612099945545,32.1328214998357,32.13895760010928,4,32.13897540001199,2218031.6656331,33.34061409998685,33.34065550006926,33.35716009978205,5,33.35718060005456,2218032.8838381,37.09799899999052,37.09806700004265,37.11344290012494,6,37.113463799934834,2218036.6401212,39.083679399918765,,,,,,959311,001,2026-06-07_18h48.35.894,Graz,,2025.1.1,59.04233342797133,2026-06-07 18h48.41.106643 -0300,
C:\Users\User\Documents\GitHub\real_time_bci\stims\right_hand.png,RIGHT_MI_STIM,4,4,0,0,4,4,7,39.10135280014947,,,,,,39.08380819996819,,,,2,39.10139499977231,2218038.6280559,39.10135280014947,,41.08756020013243,41.132807599846274,41.13865560013801,4,41.13867489993572,2218040.665333,42.34023689990863,42.340279600117356,42.35685750003904,5,42.35687830019742,2218041.8835359,46.09792470000684,46.097994999960065,46.11337899975479,6,46.11340139992535,2218045.6400607,48.08418670017272,,,,,,959311,001,2026-06-07_18h48.35.894,Graz,,2025.1.1,59.04233342797133,2026-06-07 18h48.41.106643 -0300,
C:\Users\User\Documents\GitHub\real_time_bci\stims\left_hand.png,LEFT_MI_STIM,5,5,0,0,5,5,1,48.10023339977488,,,,,,48.08432220015675,,,,2,48.100262499880046,2218047.6269208,48.10023339977488,,50.087226800154895,50.13273419998586,50.138381800148636,3,50.138398400042206,2218049.6650563,51.3400391000323,51.34007829986513,51.3564797998406,5,51.35650289990008,2218050.8831604,55.09710959997028,55.09716660017148,55.11286110011861,6,55.11288010003045,2218054.6395382,57.083736000116915,,,,,,959311,001,2026-06-07_18h48.35.894,Graz,,2025.1.1,59.04233342797133,2026-06-07 18h48.41.106643 -0300,
C:\Users\User\Documents\GitHub\real_time_bci\stims\right_hand.png,RIGHT_MI_STIM,6,6,0,0,6,6,8,57.09978340007365,,,,,,57.08386369980872,,,,2,57.09980800002813,2218056.626466,57.09978340007365,,59.086965600028634,59.132296700030565,59.1382650998421,4,59.138283600099385,2218058.6649424,60.33980230009183,60.339840199798346,60.355853099841624,5,60.35587609978393,2218059.8825339,64.09662939980626,64.09668269986287,64.11260190000758,6,64.11262430017814,2218063.6392828,66.08294710004702,,,,,,959311,001,2026-06-07_18h48.35.894,Graz,,2025.1.1,59.04233342797133,2026-06-07 18h48.41.106643 -0300,
C:\Users\User\Documents\GitHub\real_time_bci\stims\left_hand.png,LEFT_MI_STIM,7,7,0,0,7,7,0,66.1013512997888,,,,,,66.08307209983468,,,,2,66.1013986999169,2218065.6280619,66.1013512997888,,68.08799100015312,68.1379380999133,68.1545779001899,3,68.15459810011089,2218067.6812563,69.33946469984949,69.33950329991058,69.35581179987639,5,69.35583420004696,2218068.8824924,73.09590179985389,73.09594079991803,73.11282599996775,6,73.11285430006683,2218072.6395126,75.08308169990778,,,,,,959311,001,2026-06-07_18h48.35.894,Graz,,2025.1.1,59.04233342797133,2026-06-07 18h48.41.106643 -0300,
C:\Users\User\Documents\GitHub\real_time_bci\stims\right_hand.png,RIGHT_MI_STIM,8,8,0,0,8,8,9,75.09938690019771,,,,,,75.08320620004088,,,,2,75.09941559983417,2218074.6260743,75.09938690019771,,77.08666080003604,77.13213190017268,77.13764279987663,4,77.13765829987824,2218076.6643159,78.33981039980426,78.33987249992788,78.35559529997408,5,78.3556166999042,2218077.8822743,82.09539460018277,82.09543359978124,82.11236339993775,6,82.1123867998831,2218081.6390453,84.08468959992751,,,,,,959311,001,2026-06-07_18h48.35.894,Graz,,2025.1.1,59.04233342797133,2026-06-07 18h48.41.106643 -0300,
C:\Users\User\Documents\GitHub\real_time_bci\stims\right_hand.png,RIGHT_MI_STIM,9,9,0,0,9,9,5,84.0995844998397,,,,,,84.08482109988108,,,,2,84.09961450006813,2218083.6262725,84.0995844998397,,86.08603949984536,86.14001590013504,86.15493070008233,4,86.15495340013877,2218085.6816113,87.34133780002594,87.34140829974785,87.35707330005243,5,87.35709600010887,2218086.8837535,91.08035789988935,91.08040500013158,91.09901810018346,6,91.09904140001163,2218090.625699,93.08402770012617,,,,,,959311,001,2026-06-07_18h48.35.894,Graz,,2025.1.1,59.04233342797133,2026-06-07 18h48.41.106643 -0300,
C:\Users\User\Documents\GitHub\real_time_bci\stims\right_hand.png,RIGHT_MI_STIM,10,0,1,1,0,10,6,93.1010190998204,,,,,,93.08416080009192,,,,2,93.10104840015993,2218092.6277066,93.1010190998204,,95.08634029980749,95.13900290010497,95.15410330006853,4,95.15412510000169,2218094.6807832,96.33881360013038,96.33885840000585,96.35505439992994,5,96.35507739987224,2218095.8817351,100.09495380008593,100.09499179990962,100.1118040997535,6,100.11183039983734,2218099.6384889,102.08188469987363,,,,,,959311,001,2026-06-07_18h48.35.894,Graz,,2025.1.1,59.04233342797133,2026-06-07 18h48.41.106643 -0300,
C:\Users\User\Documents\GitHub\real_time_bci\stims\left_hand.png,LEFT_MI_STIM,11,1,1,1,1,11,1,102.09852450015023,,,,,,102.08201610017568,,,,2,102.09855479979888,2218101.6252134,102.09852450015023,,104.08558719977736,104.13862780015916,104.15364160016179,3,104.15366269974038,2218103.6803205,105.33849810017273,105.33854189980775,105.35487250005826,5,105.35490270005539,2218104.8815619,109.09618100011721,109.09624439990148,109.11148989992216,6,109.11151399975643,2218108.6381726,111.08160179993138,,,,,,959311,001,2026-06-07_18h48.35.894,Graz,,2025.1.1,59.04233342797133,2026-06-07 18h48.41.106643 -0300,
C:\Users\User\Documents\GitHub\real_time_bci\stims\left_hand.png,LEFT_MI_STIM,12,2,1,1,2,12,0,111.09829670004547,,,,,,111.08174260007218,,,,2,111.0983254997991,2218110.6249835,111.09829670004547,,113.08533289982006,113.13332869997248,113.15338779985905,3,113.15340900002047,2218112.680067,114.33819849975407,114.33823839994147,114.3549071000889,5,114.35492890002206,2218113.8815863,118.0949793998152,118.09501909976825,118.11104370001704,6,118.11107049975544,2218117.6377292,120.08134669996798,,,,,,959311,001,2026-06-07_18h48.35.894,Graz,,2025.1.1,59.04233342797133,2026-06-07 18h48.41.106643 -0300,
C:\Users\User\Documents\GitHub\real_time_bci\stims\right_hand.png,RIGHT_MI_STIM,13,3,1,1,3,13,8,120.09799150004983,,,,,,120.08148059993982,,,,2,120.09802050003782,2218119.6246789,120.09799150004983,,122.08781530009583,122.14388549979776,122.15623329998925,4,122.1562736001797,2218121.6829358,123.3411289001815,123.34120950009674,123.35666600009426,5,123.35669190017506,2218122.8833502,127.08132079988718,127.08142980001867,127.09832820016891,6,127.09835040010512,2218126.6250083,129.08350070007145,,,,,,959311,001,2026-06-07_18h48.35.894,Graz,,2025.1.1,59.04233342797133,2026-06-07 18h48.41.106643 -0300,
C:\Users\User\Documents\GitHub\real_time_bci\stims\right_hand.png,RIGHT_MI_STIM,14,4,1,1,4,14,9,129.09892460005358,,,,,,129.0836359001696,,,,2,129.0989839998074,2218128.6256499,129.09892460005358,,131.087194299791,131.13675920013338,131.15391100011766,4,131.15393219981343,2218130.6805908,132.3401191998273,132.34016640018672,132.35632599983364,5,132.35639869980514,2218131.8830674,136.08159299986437,136.08167049987242,136.0962797999382,6,136.09632109990343,2218135.6229795,138.08319809986278,,,,,,959311,001,2026-06-07_18h48.35.894,Graz,,2025.1.1,59.04233342797133,2026-06-07 18h48.41.106643 -0300,
C:\Users\User\Documents\GitHub\real_time_bci\stims\left_hand.png,LEFT_MI_STIM,15,5,1,1,5,15,2,138.0992789999582,,,,,,138.0833320999518,,,,2,138.099307899829,2218137.625966,138.0992789999582,,140.08835650002584,140.14139429992065,140.15545920003206,3,140.15553560014814,2218139.6822059,141.33995119994506,141.34000909980386,141.35833750013262,5,141.3583800997585,2218140.8850405,145.08066400000826,145.08072279999033,145.09560920018703,6,145.09563239989802,2218144.6222905,147.08280960004777,,,,,,959311,001,2026-06-07_18h48.35.894,Graz,,2025.1.1,59.04233342797133,2026-06-07 18h48.41.106643 -0300,
C:\Users\User\Documents\GitHub\real_time_bci\stims\right_hand.png,RIGHT_MI_STIM,16,6,1,1,6,16,7,147.09907019976526,,,,,,147.0829472001642,,,,2,147.09910089988261,2218146.625759,147.09907019976526,,149.08726199995726,149.13605719991028,149.15325840003788,4,149.15328000020236,2218148.6799383,150.33956260001287,150.33966210018843,150.35886109992862,5,150.35892480006441,2218149.8855905,154.08037390001118,154.08043430000544,154.0954390000552,6,154.09546370012686,2218153.6221225,156.0821879999712,,,,,,959311,001,2026-06-07_18h48.35.894,Graz,,2025.1.1,59.04233342797133,2026-06-07 18h48.41.106643 -0300,
C:\Users\User\Documents\GitHub\real_time_bci\stims\left_hand.png,LEFT_MI_STIM,17,7,1,1,7,17,4,156.09931739978492,,,,,,156.08232840010896,,,,2,156.09934769989923,2218155.626006,156.09931739978492,,158.0868702000007,158.1417312999256,158.15532479994,3,158.15535099990666,2218157.6820099,159.3389906999655,159.33905289974064,159.35573920002207,5,159.35578839993104,2218158.8824511,163.09504869999364,163.09508599992841,163.11202109977603,6,163.112044100184,2218162.6387016,165.08213360002264,,,,,,959311,001,2026-06-07_18h48.35.894,Graz,,2025.1.1,59.04233342797133,2026-06-07 18h48.41.106643 -0300,
C:\Users\User\Documents\GitHub\real_time_bci\stims\left_hand.png,LEFT_MI_STIM,18,8,1,1,8,18,3,165.0989653998986,,,,,,165.0822689998895,,,,2,165.09899589978158,2218164.6256543,165.0989653998986,,167.08676909981295,167.14552039979026,167.15499740000814,3,167.1550754001364,2218166.6817464,168.3432376999408,168.34330030018464,168.35624649981037,5,168.35628459975123,2218167.8829457,172.0817009001039,172.08182309987023,172.0949237998575,6,172.09494689991698,2218171.6216045,174.08259390015155,,,,,,959311,001,2026-06-07_18h48.35.894,Graz,,2025.1.1,59.04233342797133,2026-06-07 18h48.41.106643 -0300,
C:\Users\User\Documents\GitHub\real_time_bci\stims\right_hand.png,RIGHT_MI_STIM,19,9,1,1,9,19,5,174.09897379996255,,,,,,174.0827263998799,,,,2,174.099005300086,2218173.6256633,174.09897379996255,,176.08589830016717,176.13626870000735,176.15471819974482,4,176.1547551001422,2218175.6814174,177.33914239984006,177.33926399983466,177.35547529999167,5,177.35552519978955,2218176.8821871,181.09445110009983,181.09449200006202,181.1099280999042,6,181.10995749989524,2218180.6366164,183.08203739998862,,,,,,959311,001,2026-06-07_18h48.35.894,Graz,,2025.1.1,59.04233342797133,2026-06-07 18h48.41.106643 -0300,
,,,,,,,,,,,,,,,,,,,,,,,,,,,,,,,,,,,,,,,,,,,183.08212599996477,183.0821850001812,,,,959311,001,2026-06-07_18h48.35.894,Graz,,2025.1.1,59.04233342797133,2026-06-07 18h48.41.106643 -0300,
,,,,,,,,,,,,,,,,,,,,,,,,,,,,,,,,,,,,,,,,,,,,,99,183.09906589984894,2218182.6257264,,,,,,,,,
